sessionid,treatmentnumber,subjects,period,subject,group,profit,numberingroup,comp0,comp1,comp2,comp3,comp4,comp5,comp6,comp7,comp8,comp9,comp10,comp11,comp12,comp13,comp14,comp15,comp16,comp17,comp18,comp19,comp20,linear0,linear1,linear2,linear3,linear4,linear5,linear6,linear7,linear8,linear9,linear10,linear11,linear12,linear13,linear14,linear15,linear16,linear17,linear18,linear19,linear20,subs0,subs1,subs2,subs3,subs4,subs5,subs6,subs7,subs8,subs9,subs10,subs11,subs12,subs13,subs14,subs15,subs16,subs17,subs18,subs19,subs20,inter0,inter1,inter2,inter3,inter4,inter5,inter6,inter7,inter8,inter9,inter10,inter11,inter12,inter13,inter14,inter15,inter16,inter17,inter18,inter19,inter20,dicethrower,ulinear,ucomp,usubs,uinter,timeokcontrolquestion1ok,timeokcontrolquestion1bok,timeokcontrolquestion2ok,timeokcontrolquestion3ok,timecontinuetothenextquestionpra,timecontinuepractice1ok,timecontinuelinearinstructionsbu,timeconfirmlinearuok,timeconfirmlinearcondok,timecontinuelinearcondok,timecontinuecomplementsinstructi,timeconfirmcompuok,timeconfirmcompcondok,timecontinuecompcondok,timecontinueinteriorinstructions,timeconfirminteruok,timeconfirmintercondok,timecontinueintercondok,timecontinuesubstitutesinstructi,timeconfirmsubsuok,timeconfirmsubscondok,timecontinuesubscondok,timeokpayoffselectionok,condchooser,otheru,condu,relevantu,u,g,profitprivate,profitpublic,timecontinueshowprofitnormalok,timecontinueshowprofitcondok,session,interiorfirst,subsfirst,max_linear,max_comp,max_inter,min_inter,max_subs,timecontrolquestions
160412_1143,1,subjects,1,1,1,19.719999,1,0,0,2,4,6,7,7,7,9,9,10,10,11,11,12,13,16,17,18,18,19,2,2,2,3,3,3,4,4,4,5,6,6,7,7,7,8,8,9,9,9,10,3,3,3,3,3,3,6,6,7,8,10,11,12,12,13,18,18,18,19,19,19,4,4,4,6,6,7,8,8,9,10,10,12,12,13,14,14,15,15,16,16,16,0,9,15,18,13,16,23,14,-1,16,11,41,13,-323,25,19,-6,-100,26,42,13,-90,29,38,-38,-81,29,99999,1,5,7,7,15,22,10.92,8.8000002,0,99999,1,0,0,10,19,16,4,19,68
160412_1143,1,subjects,1,2,1,18.26,2,18,17,15,14,12,12,12,12,11,9,8,8,7,7,5,4,4,6,5,5,5,8,6,6,9,11,11,10,10,10,11,11,11,13,13,13,8,8,8,8,8,8,16,16,16,15,15,14,13,13,12,10,10,11,8,7,7,5,4,4,4,3,3,16,14,13,13,12,12,9,8,7,7,6,6,4,4,4,3,3,3,2,2,3,0,8,9,14,10,13,15,-129,-32,-20,-25,39,9,-328,17,20,-35,-118,25,41,1,-82,27,39,11,-75,27,0,0,7,12,9,9,22,9.46,8.8000002,99999,0,1,0,0,13,18,16,2,16,253
160412_1143,1,subjects,1,3,1,19.4,3,6,6,7,7,7,8,8,8,9,9,9,10,10,10,11,11,11,12,12,12,13,0,0,0,0,0,1,2,3,4,5,6,8,8,8,8,8,8,8,8,8,8,11,10,10,10,9,9,9,8,8,8,7,7,7,6,6,6,5,5,5,4,4,9,9,9,9,9,9,9,9,9,9,9,9,9,9,9,9,9,9,9,9,9,0,0,0,9,9,21,16,8,19,5,-4,39,18,-103,23,10,-48,-49,28,41,20,-23,26,40,-6,-45,23,0,0,10,9,0,0,22,10.6,8.8000002,99999,0,1,0,0,8,13,9,9,11,56
160412_1143,1,subjects,1,4,1,19.299999,4,8,8,8,9,9,9,8,8,8,9,8,7,7,9,8,8,8,8,9,10,9,7,7,7,9,9,9,10,10,10,9,9,9,8,8,8,10,9,8,6,6,6,8,8,8,9,8,7,8,8,7,7,7,7,7,7,7,8,8,8,7,7,7,8,8,8,8,8,8,9,9,9,9,9,9,7,7,7,8,8,8,8,8,8,0,8,6,8,8,15,24,-125,-31,-34,-40,39,6,-318,27,21,0,-129,22,42,24,-44,28,28,18,-46,28,0,0,8,8,6,6,22,10.5,8.8000002,99999,0,1,0,0,10,10,9,7,9,237
160412_1143,1,subjects,1,5,2,22.98,1,5,6,9,8,6,5,7,8,8,13,12,13,14,14,13,10,10,10,10,12,11,6,9,5,9,6,7,9,9,5,0,7,0,9,4,2,4,8,12,7,10,1,9,9,6,12,7,9,9,9,8,14,9,6,12,5,11,7,9,9,7,7,10,8,9,8,8,11,7,4,8,6,12,8,11,8,9,8,6,10,8,10,10,10,0,5,7,9,12,13,14,-16,-35,5,-3,38,3,-113,28,20,16,-112,20,42,17,-72,-23,42,17,-12,27,0,1,9.333333,13,13,7,41,6.5799999,16.4,0,99999,1,0,0,12,14,12,4,14,144
160412_1143,1,subjects,1,6,2,25.879999,2,5,5,5,6,6,6,7,7,7,8,8,8,9,9,9,10,10,10,11,11,11,10,11,12,10,11,12,10,10,10,19,18,19,2,1,1,20,20,20,0,0,0,9,9,8,8,8,7,7,7,6,6,6,5,5,5,4,4,4,3,3,3,2,7,7,7,7,7,7,7,7,7,7,7,7,7,7,7,7,7,7,7,7,7,0,12,8,7,7,-32,21,-113,-9,8,3,40,-53,-400,-31,-2,-70,-195,28,44,-11,-219,7,43,-70,-56,29,0,0,9,8,8,8,41,9.4799995,16.4,99999,0,1,0,0,20,11,7,7,9,253
160412_1143,1,subjects,1,7,2,25.1,3,2,3,4,4,5,6,5,6,7,7,8,9,8,10,12,12,14,15,16,18,19,20,17,16,9,11,12,12,13,14,10,11,12,11,13,15,11,13,14,19,19,19,13,13,13,14,14,14,15,15,15,16,16,16,17,18,18,19,20,20,20,20,20,8,9,10,11,12,13,14,15,16,16,17,17,17,18,18,18,18,19,19,20,20,0,2,10,13,8,-3,6,-69,-146,0,-10,-1,-34,-454,14,22,-25,-35,21,39,-40,-46,20,12,-14,-14,28,0,0,8.333333,7,10,10,41,8.6999998,16.4,99999,0,1,0,0,20,19,20,8,20,332
160412_1143,1,subjects,1,8,2,25.1,4,10,10,10,9,9,9,8,8,8,7,8,8,9,9,9,11,10,10,11,11,11,7,7,7,7,7,7,7,7,8,9,10,11,8,7,6,5,5,5,3,3,3,13,13,13,13,13,13,7,7,13,11,10,10,13,14,8,13,13,12,0,0,0,9,9,9,11,11,11,10,10,10,11,11,11,7,7,7,14,12,15,0,0,1,0,8,10,18,10,19,25,-27,22,7,1,42,7,-98,23,26,-6,-68,25,41,18,-56,27,40,-3,-60,26,0,0,8.333333,8,10,10,41,8.6999998,16.4,99999,0,1,0,0,11,11,15,0,14,81
160412_1143,1,subjects,1,9,3,23.9,1,0,0,0,0,2,3,6,7,8,9,10,11,12,12,12,15,17,18,18,20,20,0,0,0,0,0,0,0,0,5,5,10,11,12,13,14,15,15,15,20,20,20,2,2,2,1,1,1,6,7,8,9,10,11,12,13,14,0,0,17,20,20,20,0,1,2,3,4,5,6,7,8,9,10,11,12,13,14,15,20,20,20,20,20,0,7,10,12,7,8,19,-1,-34,-36,-42,39,-17,-222,9,34,-5,-205,5,39,-46,-108,25,40,-14,-170,-50,0,1,9.666667,10,10,10,39,8.3000002,15.6,0,99999,1,0,0,20,20,20,0,20,128
160412_1143,1,subjects,1,10,3,25.26,2,2,1,0,4,4,4,2,2,2,1,0,3,4,5,6,7,6,5,20,19,19,3,2,0,4,5,6,5,6,7,8,9,12,12,13,14,1,2,2,20,19,18,0,1,2,5,4,3,10,5,0,2,6,9,6,12,6,19,16,14,4,4,4,0,0,3,3,4,5,5,6,7,2,2,2,1,2,4,4,8,12,19,10,1,0,6,6,6,4,-36,16,-75,-20,-25,-45,38,-6,-201,22,20,-94,-67,-1,39,-13,-37,21,40,23,-43,27,0,0,11,3,6,6,39,9.6599998,15.6,99999,0,1,0,0,20,20,19,0,19,235
160412_1143,1,subjects,1,11,3,22.18,3,0,1,2,3,4,5,6,7,8,9,10,10,12,13,14,15,16,17,18,19,19,0,1,2,3,4,5,6,7,8,8,10,11,12,13,14,15,16,17,18,19,20,0,1,2,3,4,5,6,7,8,9,10,11,12,13,14,15,16,17,18,19,20,0,1,2,3,4,5,6,7,8,9,10,11,12,13,14,15,16,17,18,19,20,0,9,13,13,10,-10,-12,9,-105,14,10,40,-3,-149,6,-22,-48,-74,27,40,-6,-49,25,21,7,-25,28,0,0,8.666667,9,13,13,39,6.5799999,15.6,99999,0,1,0,0,20,19,20,0,20,238
160412_1143,1,subjects,1,12,3,23.9,4,1,1,1,2,2,2,3,3,3,3,3,3,4,4,4,4,4,5,5,5,5,1,1,2,2,2,3,4,4,4,4,4,4,4,4,4,5,5,5,5,5,5,9,9,8,8,8,7,7,7,6,6,6,5,5,5,4,4,4,3,3,3,2,7,7,7,7,7,7,7,7,7,7,7,7,7,7,7,7,7,7,7,7,7,0,8,10,8,7,10,17,-12,8,12,6,39,22,-186,23,19,-103,-51,26,39,-1,-19,28,39,-19,-36,29,0,0,9.666667,3,10,10,39,8.3000002,15.6,99999,0,1,0,0,5,5,7,7,9,97
160412_1143,1,subjects,1,13,4,24.040001,1,5,5,5,5,5,5,7,7,8,8,8,8,8,9,9,9,10,10,11,11,11,3,3,3,4,4,5,5,6,8,8,9,9,8,9,9,8,8,8,4,4,4,9,9,8,8,8,8,7,7,7,6,6,6,5,5,4,4,4,4,3,3,3,7,7,7,7,7,7,7,7,7,7,7,7,7,7,7,7,7,7,7,7,7,0,5,7,14,7,13,24,6,-1,6,1,39,16,-148,23,9,2,-92,26,37,11,-39,28,41,-11,-21,29,0,1,9.666667,8,8,7,37,9.2399998,14.8,0,99999,1,0,0,9,11,7,7,9,78
160412_1143,1,subjects,1,14,4,18.16,2,4,5,5,5,5,6,6,7,7,7,8,8,8,9,9,10,10,10,11,11,11,0,1,2,2,4,5,4,3,2,7,7,5,8,7,6,10,14,5,12,11,9,9,9,9,8,8,8,8,8,7,8,8,8,7,7,8,6,6,6,5,5,6,8,7,7,7,7,7,7,7,7,8,8,8,11,11,11,12,12,12,12,12,12,0,2,17,13,13,20,21,-79,-133,-21,-26,41,-18,-295,27,36,-51,-110,27,42,-62,-117,29,41,9,-70,26,0,0,6.3333335,6,17,17,37,3.3599999,14.8,99999,0,1,0,0,14,11,12,7,9,291
160412_1143,1,subjects,1,15,4,25.059999,3,5,6,6,6,6,6,7,7,7,8,8,8,9,9,9,10,10,10,11,11,11,9,8,6,8,8,7,6,6,8,6,8,9,10,11,14,11,9,11,9,9,9,9,9,9,8,8,8,7,7,7,6,6,6,5,5,5,5,4,4,4,3,3,7,7,7,7,7,7,7,7,7,7,7,7,7,7,7,7,7,7,7,7,7,0,6,2,5,8,20,18,8,9,-80,-85,37,3,-316,21,-21,-14,-106,28,39,-3,-44,25,40,25,-73,28,0,0,11.333333,8,2,2,37,10.26,14.8,99999,0,1,0,0,14,11,7,7,9,65
160412_1143,1,subjects,1,16,4,23.299999,4,5,5,5,6,6,6,7,7,7,8,8,8,9,9,9,10,10,10,11,11,11,0,0,0,0,0,0,0,0,0,0,0,0,0,0,0,0,0,0,0,0,0,9,9,8,8,8,7,7,7,6,6,6,5,5,5,4,4,4,3,3,3,2,7,7,7,7,7,7,7,7,7,7,7,7,7,7,7,7,7,7,7,7,7,0,0,10,7,7,6,6,-3,4,-20,-24,42,27,-10,26,-36,-12,-57,25,41,14,-9,28,39,-2,-23,29,0,0,8.666667,8,10,10,37,8.5,14.8,99999,0,1,0,0,0,11,7,7,9,107
160412_1143,1,subjects,1,17,5,26.360001,1,5,5,5,5,6,6,7,7,7,8,8,8,8,9,9,9,10,10,10,11,11,0,0,0,0,0,0,0,0,0,0,0,0,0,0,0,0,0,0,0,0,0,9,9,8,8,8,7,7,7,6,6,6,5,5,5,4,4,4,3,3,3,2,7,7,7,7,7,7,7,7,7,7,7,7,7,7,7,7,7,7,7,7,7,0,1,20,14,14,19,23,0,8,-8,-15,41,5,-6,28,39,-36,-67,28,42,21,-9,29,38,11,-19,29,0,1,12,8,8,20,44,8.7600002,17.6,0,99999,1,0,0,0,11,7,7,9,70
160412_1143,1,subjects,1,18,5,25.700001,2,4,5,5,5,6,6,7,7,7,7,8,8,8,9,9,9,10,10,16,17,20,0,0,0,1,2,3,4,5,6,7,8,9,10,11,12,13,14,15,16,17,18,9,9,8,8,8,7,7,7,8,9,10,11,12,13,14,15,16,17,20,20,20,0,0,0,3,4,5,6,7,8,9,10,11,12,13,14,15,16,17,20,20,20,0,10,5,10,12,18,24,10,8,6,1,39,12,-91,23,38,-50,-95,24,41,2,-54,24,39,1,-123,27,0,0,17,10,5,5,44,8.1000004,17.6,99999,0,1,0,0,18,20,20,0,20,60
160412_1143,1,subjects,1,19,5,22.82,3,5,5,6,6,6,6,7,7,7,8,8,8,9,9,9,10,10,10,11,11,11,1,2,3,4,5,6,7,8,9,10,11,12,13,14,15,16,17,18,19,20,20,9,9,8,8,8,7,7,7,6,6,6,5,5,5,4,4,4,3,3,3,2,7,7,7,7,7,7,7,7,7,7,7,7,7,7,7,13,15,16,16,15,17,0,7,14,8,7,20,19,-15,16,10,6,39,-14,-73,23,26,-52,-62,24,41,22,-32,28,38,7,-56,27,0,0,14,9,14,14,44,5.2199998,17.6,99999,0,1,0,0,20,11,17,7,9,80
160412_1143,1,subjects,1,20,5,20.540001,4,4,5,5,6,7,8,6,7,9,9,11,12,13,13,12,16,15,18,18,20,20,0,2,3,4,5,6,6,8,9,10,11,12,13,14,15,16,17,18,19,20,19,2,2,3,4,5,6,7,8,9,10,11,12,13,14,15,16,17,18,19,18,19,0,2,2,3,5,6,7,8,9,10,9,11,13,14,15,15,17,18,17,18,19,0,5,17,19,15,11,23,-10,-12,5,0,40,-9,-199,23,27,-28,-345,15,41,-14,-93,14,40,18,-92,26,0,0,13,13,17,17,44,2.9400001,17.6,99999,0,1,0,0,20,20,19,0,19,108
160425_1139,1,subjects,1,21,1,21.16,1,4,3,6,4,4,4,4,4,6,5,3,4,20,20,20,20,20,20,20,17,20,2,20,9,4,6,7,4,4,4,5,5,3,6,4,3,6,5,4,5,5,4,1,0,1,1,1,1,4,2,5,2,3,5,4,3,1,2,3,1,1,1,2,11,7,4,6,4,3,3,3,8,9,16,3,3,12,3,2,4,3,3,4,3,0,8,3,2,2,-6,16,-112,-159,-29,-40,41,27,-390,23,36,24,-69,25,36,15,-81,22,42,17,-71,28,99999,0,7,4,3,3,24,11.56,9.6000004,99999,0,2,0,0,20,20,16,2,5,381
160425_1139,1,subjects,1,22,1,21,2,5,5,5,6,6,6,7,7,7,8,8,8,9,9,9,10,10,10,11,11,11,0,0,0,0,0,0,0,0,0,0,0,0,0,0,0,0,0,0,0,0,0,9,9,8,8,8,7,7,7,6,6,6,5,5,5,4,4,4,3,3,3,2,7,7,7,7,7,7,7,7,7,7,7,7,7,7,7,7,7,7,7,7,7,0,0,5,7,7,14,23,3,16,20,13,41,18,-86,19,32,-16,-60,28,41,23,3,28,27,8,-30,24,0,0,6.3333335,7,5,5,24,11.4,9.6000004,99999,0,2,0,0,0,11,7,7,9,64
160425_1139,1,subjects,1,23,1,21,3,1,1,1,2,1,1,3,2,1,1,1,1,2,1,1,1,1,1,1,1,1,2,1,2,1,1,1,3,2,1,3,2,2,3,2,2,2,2,2,1,1,1,4,4,4,4,4,4,3,3,3,2,2,2,2,2,2,2,2,2,3,3,3,6,7,6,6,5,8,7,7,7,6,6,6,5,5,5,4,4,4,5,4,4,0,1,1,6,9,-32,20,-146,-21,-38,-43,36,-83,-89,22,9,6,-21,21,21,5,-38,23,30,24,-27,21,0,1,7.6666665,1,1,1,24,11.4,9.6000004,0,99999,2,0,0,3,3,8,4,4,299
160425_1139,1,subjects,1,24,1,15.2,4,7,7,7,3,6,7,2,5,3,13,10,3,6,7,7,6,5,4,12,12,8,12,8,3,4,0,15,7,11,17,5,11,3,8,10,12,12,6,2,5,10,18,7,10,7,14,14,12,15,14,12,13,12,12,13,11,11,14,14,13,12,12,11,0,3,4,3,4,5,4,5,6,7,8,9,10,11,12,12,13,14,15,16,17,0,12,15,5,12,19,22,-42,-25,-39,-48,41,23,-60,22,26,22,-114,23,36,24,-33,28,36,25,-58,25,0,0,3,3,15,15,24,5.5999999,9.6000004,99999,0,2,0,0,18,13,17,0,15,146
160425_1139,1,subjects,1,25,2,22.280001,1,7,7,7,7,7,7,8,8,8,7,7,7,8,8,8,8,8,8,9,9,9,9,8,7,9,9,9,8,8,8,9,8,7,8,8,8,8,9,9,8,8,8,9,9,8,8,8,7,7,7,6,7,6,6,6,5,5,6,6,5,3,2,1,4,4,4,8,8,8,8,8,8,8,8,8,7,7,7,7,7,7,7,7,7,0,9,8,9,8,14,23,6,14,9,-3,38,5,-107,20,18,-16,-71,27,39,13,-39,15,41,20,-34,29,0,0,8.666667,7,8,8,32,9.4799995,12.8,99999,0,2,0,0,9,9,8,4,9,63
160425_1139,1,subjects,1,26,2,18.860001,2,6,6,6,7,7,7,8,8,7,9,8,8,9,9,9,10,11,11,10,11,11,5,5,5,6,7,7,6,6,7,8,8,9,9,9,11,14,14,16,16,16,19,5,5,4,7,6,8,7,6,7,6,6,6,7,7,6,4,5,4,3,3,4,7,7,7,9,8,8,8,7,7,8,7,7,8,7,7,8,8,7,7,10,9,0,10,14,8,8,19,15,-153,3,-18,-22,37,12,-140,22,-4,-34,-168,25,36,6,-52,27,39,-11,-119,27,0,0,6.6666665,8,14,14,32,6.0599999,12.8,99999,0,2,0,0,19,11,10,7,8,236
160425_1139,1,subjects,1,27,2,23.52,3,1,2,2,2,3,3,3,3,3,4,4,4,4,5,5,5,5,6,6,6,6,2,1,3,3,5,5,5,7,7,8,9,9,10,10,11,12,12,13,13,15,16,1,1,1,1,2,2,2,2,2,3,3,3,3,4,4,4,4,5,5,5,6,2,2,2,3,3,3,4,4,4,4,5,5,5,5,5,6,6,6,6,7,7,0,10,6,2,8,10,10,-55,2,4,-1,40,11,-391,14,-13,-22,-262,14,31,9,-113,4,25,-67,-74,24,0,1,9.333333,4,4,6,32,10.72,12.8,0,99999,2,0,0,16,6,7,2,6,153
160425_1139,1,subjects,1,28,2,23.02,4,0,0,10,10,10,10,11,11,11,10,10,10,10,9,10,11,10,10,12,12,11,10,11,11,10,10,10,11,12,12,9,11,10,8,9,11,13,12,11,11,8,11,10,10,10,9,9,10,11,10,10,11,11,11,11,10,11,11,11,11,10,10,11,10,10,11,10,11,10,10,11,11,11,11,10,10,9,10,12,12,10,12,12,11,0,10,6,9,11,19,23,4,-39,4,-3,41,25,-84,22,40,12,-8,27,41,28,-8,27,43,23,6,28,0,0,9.333333,10,6,6,32,10.22,12.8,99999,0,2,0,0,13,12,12,9,11,113
160425_1139,1,subjects,1,29,3,19.66,1,5,5,5,6,8,6,8,8,8,8,8,8,9,9,9,9,10,10,11,11,11,0,0,0,0,0,0,0,0,0,0,0,0,0,0,0,0,0,0,0,0,0,4,4,3,3,3,3,3,3,3,8,8,6,3,3,3,7,7,7,6,6,6,20,20,20,18,18,14,15,9,8,8,8,8,8,8,8,0,0,0,0,0,0,0,0,14,20,3,-5,19,-43,2,14,7,37,0,-408,20,1,-5,-315,22,4,-40,-156,25,22,-12,-62,28,0,0,7.3333335,8,14,14,34,6.0599999,13.6,99999,0,2,0,0,0,11,20,0,8,147
160425_1139,1,subjects,1,30,3,23.219999,2,0,1,2,3,4,5,6,7,8,2,1,2,2,2,3,3,3,5,4,5,6,0,1,2,3,4,5,6,7,8,9,10,10,10,10,10,10,10,10,9,9,9,9,9,8,8,8,7,7,7,6,6,6,5,5,5,4,4,4,3,3,3,2,7,7,7,7,7,7,7,7,7,7,7,7,7,7,7,7,7,7,7,7,7,0,8,7,9,6,14,16,-9,-13,8,1,37,1,-153,-2,26,-30,-137,24,38,15,-45,12,36,21,-39,27,0,0,9.666667,1,7,7,34,9.6199999,13.6,99999,0,2,0,0,10,8,7,7,9,112
160425_1139,1,subjects,1,31,3,23.08,3,5,5,5,6,6,6,7,7,7,8,8,8,9,9,9,10,10,10,11,11,11,0,0,0,1,1,2,2,2,3,3,4,4,4,5,5,6,6,6,7,7,8,15,15,15,7,6,6,5,6,7,9,10,10,10,10,10,12,12,12,12,12,12,7,7,7,7,7,7,7,7,7,9,10,11,12,13,14,15,15,15,14,14,14,0,10,10,10,15,14,19,-5,-11,3,-2,40,-1,-268,24,18,-97,-212,27,38,-78,-130,29,33,-57,-217,28,0,1,8.666667,8,8,10,34,9.4799995,13.6,0,99999,2,0,0,8,11,15,7,15,103
160425_1139,1,subjects,1,32,3,23.799999,4,5,6,9,5,6,7,7,2,10,1,0,1,9,10,10,10,20,19,20,20,20,0,4,10,7,6,8,8,8,4,8,5,7,10,5,10,10,10,10,9,9,9,9,7,8,3,4,5,6,7,8,9,10,11,12,13,14,15,16,17,14,14,14,8,8,8,8,8,8,8,8,8,8,8,8,8,8,8,8,8,8,6,6,7,0,0,5,10,10,-16,15,-210,-107,13,9,41,0,-266,14,12,5,-147,16,36,-1,-59,19,42,19,-64,29,0,0,10.333333,0,5,5,34,10.2,13.6,99999,0,2,0,0,10,20,8,6,17,438
160425_1139,1,subjects,1,33,4,29,1,8,7,8,9,9,10,10,11,8,9,9,9,11,12,12,12,13,13,14,12,15,5,7,6,8,9,7,10,4,9,9,8,10,13,12,8,6,6,10,13,14,15,10,10,10,10,10,10,10,10,10,9,8,8,8,7,7,12,12,12,11,11,11,4,5,7,7,8,6,9,9,8,10,10,10,9,10,10,12,12,13,14,15,15,0,10,5,14,11,16,22,-27,-48,-10,-50,41,22,-55,23,30,-2,-50,17,38,8,-53,24,35,9,-49,27,0,0,13.666667,12,5,5,50,9,20,99999,0,2,0,0,15,15,15,4,12,157
160425_1139,1,subjects,1,34,4,22.18,2,14,15,15,16,16,16,16,16,18,18,19,19,19,16,16,20,19,18,19,19,19,8,10,12,11,12,12,11,11,11,12,12,12,0,20,10,10,10,10,10,10,10,18,17,16,16,15,14,15,14,13,12,17,16,16,16,16,17,17,17,17,17,17,18,18,18,18,18,18,18,18,18,18,18,18,18,18,18,18,18,18,18,18,18,0,7,18,20,18,-6,3,-320,-17,-124,-133,37,6,-233,23,-17,-2,-61,24,21,11,-27,27,22,11,-200,26,0,0,9.333333,18,18,18,50,2.1800001,20,99999,0,2,0,0,20,20,18,18,18,460
160425_1139,1,subjects,1,35,4,27.92,3,6,6,6,6,6,6,6,6,6,6,6,6,8,9,9,10,10,10,10,11,11,0,1,2,2,3,4,5,6,7,8,9,10,11,12,13,14,15,16,17,18,19,9,9,8,8,8,7,7,7,6,6,6,5,5,5,4,4,4,3,3,3,2,7,7,7,7,7,7,7,7,7,7,7,7,7,7,7,7,7,7,7,7,7,0,0,5,8,7,17,25,-70,-31,-8,-15,37,16,-113,23,31,15,-27,21,39,14,-48,7,43,3,-40,27,0,1,13.666667,9,9,5,50,7.9200001,20,0,99999,2,0,0,19,11,7,7,9,179
160425_1139,1,subjects,1,36,4,22.18,4,8,6,7,7,7,8,8,8,9,12,14,16,13,15,17,14,16,18,19,19,19,4,4,5,5,5,5,6,6,6,9,9,9,10,10,10,15,15,15,17,17,17,12,13,13,11,12,12,10,10,10,10,11,11,13,13,13,15,15,15,17,17,16,9,9,9,9,9,9,9,9,9,12,13,13,15,15,15,17,17,17,18,18,18,0,6,18,17,19,12,23,-14,-4,11,2,39,9,-176,22,8,-24,-216,17,39,13,-94,26,36,19,-97,25,0,0,9.333333,12,18,18,50,2.1800001,20,99999,0,2,0,0,17,19,18,9,17,103
160425_1139,1,subjects,1,37,5,28.299999,1,10,10,10,8,8,11,10,11,11,11,11,13,13,14,20,14,16,15,16,16,17,10,10,10,8,8,8,8,8,8,9,9,9,9,9,9,10,10,10,12,13,13,11,13,13,15,14,14,12,13,13,15,14,14,13,13,13,13,13,12,11,11,11,13,13,13,14,13,13,14,14,13,13,13,13,12,12,14,14,14,14,13,13,14,0,10,10,13,17,-3,13,-134,-4,-139,-182,37,-10,-419,17,32,3,-237,21,19,13,-56,25,32,18,-94,26,0,0,13.666667,20,10,10,52,7.5,20.799999,99999,0,2,0,0,13,20,14,12,15,248
160425_1139,1,subjects,1,38,5,22.9,2,14,15,15,15,16,16,16,17,17,17,18,18,18,19,19,19,20,20,20,20,20,1,3,2,4,4,5,6,7,8,9,10,11,12,13,14,15,16,17,18,19,20,9,9,8,10,9,9,9,9,9,9,10,11,12,13,14,16,16,16,16,16,15,8,8,8,9,9,9,9,9,9,9,10,11,12,13,14,15,16,17,18,18,18,0,10,18,19,7,10,23,-10,-2,-3,-11,41,2,-214,23,-38,-18,-72,25,39,4,-39,28,36,26,-85,28,0,0,11,18,18,18,52,2.0999999,20.799999,99999,0,2,0,0,20,20,18,8,16,99
160425_1139,1,subjects,1,39,5,26.82,3,4,5,5,13,13,13,13,13,14,8,8,8,12,13,13,13,13,13,14,14,14,0,0,0,0,0,0,0,0,4,4,5,5,7,7,8,8,8,8,9,9,9,9,9,9,8,8,8,7,7,7,7,7,7,8,8,8,7,7,7,6,6,6,11,11,11,11,11,11,11,11,11,11,11,11,11,11,11,11,11,11,11,11,11,0,0,12,16,11,5,20,1,-65,-38,-45,38,7,-337,21,9,-39,-115,20,39,12,-59,26,26,-3,-56,28,0,1,13,13,13,12,52,6.02,20.799999,0,99999,2,0,0,9,14,11,11,9,159
160425_1139,1,subjects,1,40,5,28,4,0,0,0,7,7,7,10,10,10,12,12,12,14,14,14,16,16,16,17,17,17,0,0,0,0,0,0,5,5,5,8,8,8,10,10,10,12,12,12,15,15,15,9,8,8,7,6,6,7,7,7,6,6,6,5,5,4,4,4,3,3,3,2,7,7,7,7,7,7,7,7,7,8,8,8,11,11,11,14,14,14,17,17,17,0,0,11,7,7,17,25,-1,11,-4,-13,41,5,-39,25,16,6,-25,27,36,18,-23,19,30,8,-32,28,0,0,13.333333,14,11,11,52,7.1999998,20.799999,99999,0,2,0,0,15,17,17,7,9,68
160425_1354,1,subjects,1,41,1,23.450001,1,18,18,18,17,17,17,17,17,17,17,17,17,17,17,17,17,17,17,18,17,17,17,17,17,17,17,17,16,16,17,16,18,17,16,17,17,18,17,17,17,17,17,18,18,18,18,18,18,18,18,18,18,18,18,18,18,18,18,18,18,18,18,18,17,19,19,17,17,17,14,14,17,17,17,17,17,17,17,16,17,18,17,17,17,0,20,20,17,17,-131,23,-44,-20,-5,-27,40,17,-70,28,31,-27,-43,20,11,-11,-296,14,40,11,-12,28,99999,0,9.333333,18,17,17,50,3.45,20,99999,0,3,1,0,18,18,19,14,18,292
160425_1354,1,subjects,1,42,1,29.450001,2,5,5,5,7,7,7,8,8,10,10,11,11,14,14,15,16,18,18,20,20,20,0,0,0,2,2,2,4,4,4,5,6,7,8,10,12,11,13,15,16,18,20,10,10,9,9,9,9,9,9,9,9,10,10,10,11,12,16,16,18,18,18,18,7,8,9,9,10,10,11,11,12,12,13,13,14,14,15,17,19,19,20,20,19,0,0,8,6,10,23,24,-4,-79,-23,-28,25,12,-50,26,40,-39,-132,24,36,10,-149,26,36,-35,-89,28,0,1,13,11,11,6,50,9.4499998,20,0,99999,3,1,0,20,20,20,7,18,156
160425_1354,1,subjects,1,43,1,29.09,3,4,5,5,6,6,6,6,7,7,7,8,8,9,9,9,9,10,10,10,11,11,0,0,0,0,0,0,0,0,0,0,0,0,0,0,0,0,0,0,0,0,0,10,10,9,8,8,7,7,7,6,6,6,5,5,5,4,4,4,3,4,4,2,7,7,7,7,7,7,7,7,7,7,7,7,7,7,7,7,7,7,7,7,7,0,0,20,11,7,17,12,-29,-54,-98,-107,38,-4,-23,25,12,-40,-317,20,21,-22,-173,9,20,-27,-112,25,0,0,11.333333,5,11,11,50,9.0900002,20,99999,0,3,1,0,0,11,7,7,10,174
160425_1354,1,subjects,1,44,1,29.09,4,5,5,5,6,6,6,7,7,7,8,8,8,9,9,9,10,10,10,11,11,11,0,0,0,0,0,0,0,0,0,0,0,0,0,0,0,0,0,0,0,0,0,9,9,9,8,8,8,7,7,7,6,6,6,5,5,5,4,4,4,3,3,3,7,7,7,7,7,7,7,7,7,7,7,7,7,7,7,7,7,7,7,7,7,0,0,11,11,11,19,16,-49,-61,-7,-10,43,7,3,29,33,-8,-53,22,31,-5,-200,23,42,20,-21,28,0,0,11.333333,6,11,11,50,9.0900002,20,99999,0,3,1,0,0,11,7,7,9,195
160425_1354,1,subjects,1,45,2,21.25,1,0,1,2,3,4,5,6,7,8,9,10,11,12,13,14,15,16,17,18,19,20,0,0,0,0,0,0,0,0,0,0,0,0,0,0,0,0,0,0,0,0,0,9,9,8,8,8,7,8,7,6,6,6,5,5,5,4,4,4,3,3,3,2,0,1,2,3,4,5,7,7,8,9,10,11,12,13,14,15,16,17,18,19,20,0,0,5,9,7,-8,9,-29,-22,1,-9,31,11,-153,26,23,-35,-63,22,24,-24,-252,13,40,-30,-186,25,0,0,11,5,9,9,27,10.45,10.8,99999,0,3,1,0,0,20,20,0,9,170
160425_1354,1,subjects,1,46,2,22.870001,2,1,2,1,1,5,3,2,1,1,9,5,2,3,2,3,4,4,5,7,5,9,14,14,17,5,3,2,10,9,4,9,2,0,1,3,4,4,2,1,5,1,4,3,3,3,2,3,1,0,3,3,0,2,2,2,1,1,1,0,0,0,0,0,1,2,2,5,5,3,1,1,0,9,10,8,7,6,14,8,7,2,1,5,2,0,4,17,18,11,-67,20,-214,-25,-31,-39,42,-20,-79,28,-31,16,-124,20,22,6,-273,21,43,9,-42,28,0,1,8,3,3,18,27,12.07,10.8,0,99999,3,1,0,17,9,14,0,3,406
160425_1354,1,subjects,1,47,2,23.120001,3,0,1,2,3,4,5,6,7,7,8,8,8,9,9,9,10,10,10,11,11,11,0,0,0,0,0,0,0,0,0,0,0,0,0,0,0,0,0,0,0,0,0,2,2,3,4,5,6,7,7,6,6,6,5,5,5,4,4,4,3,3,3,2,0,1,2,3,4,5,6,7,7,7,7,7,7,7,7,7,7,7,7,7,7,0,0,7,6,7,17,21,-37,15,1,-3,30,26,-9,28,39,-14,-39,28,42,23,-68,26,34,16,-40,27,0,0,12,5,6,6,27,12.32,10.8,99999,0,3,1,0,0,11,7,0,7,104
160425_1354,1,subjects,1,48,2,21.25,4,4,5,5,5,6,6,6,7,7,8,8,8,9,9,9,10,10,10,11,11,11,0,0,0,0,0,0,0,0,0,0,0,0,0,0,0,0,0,0,0,0,0,9,9,8,8,8,7,7,7,6,6,6,5,5,5,4,4,4,3,3,3,2,7,7,7,7,7,7,7,7,7,7,7,7,7,7,7,7,7,7,7,7,7,0,0,6,9,7,23,22,7,0,15,11,42,17,-26,26,35,-94,-105,27,22,-10,-38,23,38,-1,-43,26,0,0,11,5,9,9,27,10.45,10.8,99999,0,3,1,0,0,11,7,7,9,68
160425_1354,1,subjects,1,49,3,24.549999,1,5,5,5,6,6,6,7,7,7,8,8,8,9,9,9,10,10,10,11,11,11,0,0,0,0,0,0,0,0,0,0,0,0,0,0,0,0,0,0,0,0,0,9,9,8,8,8,7,7,7,6,6,6,5,5,5,4,20,7,19,12,12,15,7,7,7,7,7,7,7,7,7,8,9,11,12,13,14,15,16,17,18,19,20,0,0,20,15,14,19,21,-69,-48,-89,-94,35,12,-26,28,14,-38,-73,24,21,10,-155,21,31,-17,-46,28,0,0,12.333333,5,15,15,47,5.75,18.799999,99999,0,3,1,0,0,11,20,7,20,197
160425_1354,1,subjects,1,50,3,32.560001,2,5,5,6,6,6,6,7,7,7,8,8,8,9,9,9,10,10,10,11,11,11,20,20,20,20,20,20,20,20,20,20,20,20,20,20,20,20,20,20,20,20,20,9,9,8,8,8,7,7,7,6,6,6,5,5,5,4,4,4,3,3,3,2,7,7,7,7,7,7,7,7,7,7,7,7,7,7,7,7,7,7,7,7,7,0,0,15,9,8,18,13,-5,13,-78,-86,38,16,-19,27,20,-61,-63,25,36,12,-80,19,31,7,-52,25,0,1,14.333333,4,4,9,47,13.76,18.799999,0,99999,3,1,0,20,11,7,7,9,81
160425_1354,1,subjects,1,51,3,18.799999,3,5,5,5,6,6,6,7,7,7,8,8,8,9,9,9,10,10,10,11,11,11,0,0,0,0,0,0,0,0,0,0,0,0,0,0,0,0,0,0,0,0,0,9,9,8,8,8,7,7,7,6,6,6,5,5,5,4,4,4,3,3,3,2,7,7,7,7,7,7,7,7,7,7,7,7,7,7,7,7,7,7,7,7,7,0,0,0,20,7,23,26,11,13,9,5,41,16,2,29,14,-15,-62,20,40,21,-27,25,34,7,-18,28,0,0,10.666667,5,20,20,47,0,18.799999,99999,0,3,1,0,0,11,7,7,9,47
160425_1354,1,subjects,1,52,3,30.799999,4,4,5,5,5,6,6,6,7,7,7,8,8,8,9,9,9,10,10,10,11,11,0,0,0,2,2,2,4,4,4,5,6,6,5,6,6,6,6,7,8,8,8,9,9,9,8,8,7,7,7,6,6,6,5,5,5,4,4,4,3,3,3,3,2,2,3,3,4,4,4,4,5,5,6,6,7,7,8,8,9,9,9,9,9,0,5,9,8,10,14,23,10,14,15,11,40,2,-59,24,40,13,-75,26,22,-58,-181,23,38,22,-47,27,0,0,14.666667,4,8,8,47,12,18.799999,99999,0,3,1,0,8,11,9,2,9,59
160428_1441,1,subjects,1,53,1,18.799999,1,20,20,20,20,20,20,20,20,20,20,20,20,20,20,20,20,20,20,20,20,20,0,0,0,0,0,0,0,0,0,0,0,0,0,0,0,0,0,0,0,0,0,20,20,20,20,20,20,20,20,20,20,20,20,20,20,20,20,20,20,20,20,20,20,20,20,20,20,20,20,20,20,20,20,20,20,20,20,20,20,20,20,20,20,0,0,20,20,20,22,22,-8,17,15,12,37,5,-19,28,40,14,-3,29,39,26,-11,26,38,24,6,28,99999,0,11,20,20,20,47,0,18.799999,99999,0,4,1,0,0,20,20,20,20,67
160428_1441,1,subjects,1,54,1,30.799999,2,5,5,5,6,6,6,7,7,7,8,8,8,9,9,9,10,10,10,11,11,11,0,0,0,0,0,0,0,0,0,0,0,0,0,0,0,0,0,0,0,0,0,9,9,8,8,8,7,7,7,6,6,6,5,5,5,4,4,4,3,3,3,2,7,7,7,7,7,7,7,7,7,7,7,7,7,7,7,7,7,7,7,7,7,0,0,8,8,7,18,24,-97,-7,-29,-35,37,12,-18,24,23,-50,-94,24,33,6,-134,16,37,-17,-33,27,0,0,15,4,8,8,47,12,18.799999,99999,0,4,1,0,0,11,7,7,9,182
160428_1441,1,subjects,1,55,1,21.280001,3,20,19,18,17,16,15,10,10,10,10,10,10,10,10,10,10,10,10,6,6,6,20,20,20,18,18,18,17,17,17,15,15,15,14,13,12,10,10,10,10,10,10,20,20,20,19,19,19,18,18,18,17,16,15,14,14,14,15,15,15,13,14,14,20,19,18,17,16,15,14,13,12,11,10,9,10,10,10,10,10,10,12,12,12,0,17,18,18,17,15,18,-24,-10,11,6,40,11,-30,29,11,-22,-67,26,29,2,-73,22,28,24,-40,28,0,0,11.666667,14,18,18,47,2.48,18.799999,99999,0,4,1,0,20,20,20,9,20,121
160428_1441,1,subjects,1,56,1,33.810001,4,1,1,1,4,4,4,7,7,7,10,10,10,13,13,13,16,16,16,19,19,19,0,0,3,3,3,3,4,4,4,7,13,1,17,1,10,3,3,3,5,9,10,11,6,8,11,9,11,6,6,6,9,9,9,4,4,4,1,1,1,0,1,0,1,2,3,5,6,7,8,8,8,9,9,9,13,13,13,16,16,16,17,17,17,0,0,5,7,8,21,25,1,18,10,4,40,21,-30,29,-51,-10,-60,24,31,17,-153,23,38,10,-93,28,0,1,15.333333,1,1,7,47,15.01,18.799999,0,99999,4,1,0,17,19,17,1,11,55
160428_1441,1,subjects,1,57,2,22.120001,1,20,20,20,20,20,20,20,20,20,20,20,20,20,20,20,20,20,20,20,20,20,20,20,20,20,20,20,20,20,20,20,20,20,20,20,20,20,20,20,20,20,20,20,20,20,20,20,20,20,20,20,20,20,20,20,20,20,20,20,20,20,20,20,20,20,20,20,20,20,20,20,20,20,20,20,20,20,20,20,20,20,20,20,20,0,10,14,14,16,15,20,8,1,-21,-28,18,14,3,27,22,-6,-12,26,35,23,-104,25,28,19,7,28,0,0,7,20,14,14,40,6.1199999,16,99999,0,4,1,0,20,20,20,20,20,76
160428_1441,1,subjects,1,58,2,27.049999,2,5,6,6,8,9,10,9,10,11,10,11,12,11,12,12,12,13,13,14,15,15,0,0,0,0,0,0,0,0,0,5,5,5,2,2,2,5,5,4,4,2,5,6,7,6,7,8,9,8,8,8,9,9,8,8,8,8,6,6,6,7,9,8,6,7,8,7,7,7,10,9,8,7,7,6,9,9,8,8,11,9,14,13,14,0,0,8,7,11,-5,17,-14,-123,-54,-62,37,3,-108,26,13,-10,-111,18,33,4,-223,19,14,16,-88,28,0,0,9.333333,9,7,7,40,11.05,16,99999,0,4,1,0,5,15,14,6,9,245
160428_1441,1,subjects,1,59,2,22.120001,3,5,5,3,4,4,5,7,7,8,9,9,10,12,12,13,15,15,16,18,18,19,0,1,2,3,4,5,6,7,8,9,10,11,12,13,14,15,16,17,18,18,19,5,6,5,4,6,7,7,7,8,10,10,11,12,13,14,15,16,17,18,19,19,3,4,6,5,5,7,6,7,8,9,10,11,12,13,14,15,16,17,18,18,19,0,14,10,14,16,22,27,-15,-80,8,2,40,28,-59,27,39,12,-87,25,29,4,-135,19,27,24,-108,26,0,0,7,7,14,14,40,6.1199999,16,99999,0,4,1,0,19,19,19,3,19,166
160428_1441,1,subjects,1,60,2,28.75,4,1,2,3,4,5,6,7,8,9,10,11,12,13,14,15,16,17,18,19,20,20,0,0,0,0,0,0,0,0,0,0,0,0,0,0,0,0,0,0,0,0,0,10,10,10,8,8,8,7,7,7,6,6,6,5,5,5,4,4,4,3,3,3,0,2,3,4,5,6,7,8,9,10,11,12,13,14,15,16,17,18,19,20,20,0,0,10,0,7,21,21,-138,-53,12,5,39,5,-67,28,22,12,-84,13,33,-5,-130,21,27,-14,-58,23,0,1,11.666667,5,5,0,40,12.75,16,0,99999,4,1,0,0,20,20,0,10,269
160428_1441,1,subjects,1,61,3,23.120001,1,0,1,1,1,2,2,3,3,4,4,5,5,6,7,7,7,8,8,9,9,10,0,1,1,1,2,2,3,3,4,4,5,5,6,6,7,7,8,8,9,9,10,0,1,1,1,2,2,3,3,4,4,5,5,6,6,7,7,8,8,9,9,10,0,1,1,6,8,10,3,3,4,4,5,6,6,7,7,8,8,9,9,10,10,0,0,14,8,19,18,15,-75,-3,-24,-34,37,11,-85,17,30,-30,-147,19,26,3,-327,0,-14,0,-58,27,0,0,8.333333,4,8,8,32,10.32,12.8,99999,0,4,1,0,10,10,10,0,10,165
160428_1441,1,subjects,1,62,3,22.59,2,0,1,2,3,4,5,6,7,8,9,10,11,12,13,14,15,16,17,18,19,20,0,1,2,3,4,5,6,7,8,9,10,11,12,13,14,15,16,17,18,19,20,0,1,2,3,4,5,6,7,8,9,10,11,12,13,14,15,16,17,18,19,20,0,1,2,3,4,5,6,7,8,9,10,11,12,13,14,15,16,17,18,19,20,0,0,4,9,7,18,26,-75,16,-93,-110,40,28,-20,27,22,-19,-45,26,36,21,-123,19,35,24,-19,28,0,0,8,8,9,9,32,9.79,12.8,99999,0,4,1,0,20,20,20,0,20,135
160428_1441,1,subjects,1,63,3,22.59,3,5,5,5,6,6,7,7,7,7,8,8,8,9,9,9,10,10,10,11,11,11,0,0,0,0,0,0,0,0,0,0,0,0,0,0,0,0,0,0,0,0,0,9,9,9,8,8,8,7,7,7,6,6,6,5,5,5,4,4,4,3,3,3,7,7,7,7,7,7,7,7,7,7,7,7,7,7,7,7,7,7,7,7,7,0,0,9,9,7,25,27,14,10,24,20,45,27,-4,29,39,-19,-50,29,44,18,-20,30,44,9,-3,29,0,0,8,7,9,9,32,9.79,12.8,99999,0,4,1,0,0,11,7,7,9,44
160428_1441,1,subjects,1,64,3,24.280001,4,5,5,5,6,6,6,7,7,7,8,8,8,9,9,9,10,10,10,11,11,11,0,0,0,0,0,0,0,0,0,0,0,0,0,0,0,0,0,0,1,1,1,9,9,8,8,8,7,7,7,6,6,6,5,5,5,4,4,4,4,3,3,3,7,7,7,7,7,7,7,7,7,7,7,7,7,7,7,7,7,7,8,8,8,0,0,4,7,7,17,27,16,18,17,13,40,26,-12,27,12,-88,-103,27,38,17,-49,25,31,-14,-47,27,0,1,8.666667,6,6,7,32,11.48,12.8,0,99999,4,1,0,1,11,8,7,9,42
160428_1441,1,subjects,1,65,4,26.110001,1,0,1,2,3,3,4,5,6,7,8,8,8,9,9,9,10,10,10,11,11,11,0,0,0,0,0,0,0,0,0,0,0,0,0,0,0,0,0,0,0,0,0,9,9,9,9,8,8,8,7,7,7,6,6,6,5,5,5,4,4,4,3,3,7,7,7,7,7,7,7,7,7,7,7,7,10,10,10,10,10,10,12,12,12,0,0,2,7,10,21,16,-41,-26,15,10,37,16,1,28,15,-63,-140,26,33,0,-68,18,38,-32,-34,29,0,0,10.333333,6,7,7,37,11.31,14.8,99999,0,4,1,0,0,11,12,7,9,150
160428_1441,1,subjects,1,66,4,23.530001,2,4,5,5,6,6,6,7,7,7,8,8,8,9,9,9,10,10,10,11,11,11,0,0,0,1,1,1,1,1,1,1,1,1,1,1,1,1,1,1,1,1,1,9,9,8,9,8,8,8,7,7,6,6,6,5,5,5,4,4,4,4,4,4,6,6,6,6,6,6,6,6,7,8,8,9,9,9,9,10,10,10,12,13,14,0,0,3,11,8,19,25,-1,8,-6,-13,37,27,-34,28,17,-19,-51,26,35,22,-104,19,35,21,-63,28,0,0,9,6,11,11,37,8.7299995,14.8,99999,0,4,1,0,1,11,14,6,9,69
160428_1441,1,subjects,1,67,4,24.200001,3,5,5,5,6,7,7,7,8,8,8,9,9,9,10,10,10,11,11,11,12,12,2,3,4,5,6,7,8,9,10,10,9,8,7,6,5,4,3,2,10,10,10,10,9,9,9,9,8,7,7,7,7,6,6,10,10,10,4,4,3,10,10,10,1,2,3,3,2,5,6,7,8,9,5,11,6,13,7,15,8,17,8,19,10,0,5,4,10,10,18,17,-6,-29,-15,-19,42,17,-49,29,40,4,-54,25,38,19,-139,21,44,23,-51,28,0,0,9.333333,7,10,10,37,9.3999996,14.8,99999,0,4,1,0,10,12,19,1,10,120
160428_1441,1,subjects,1,68,4,24.809999,4,14,11,10,11,15,14,9,8,7,8,8,9,6,5,5,5,5,5,9,8,7,3,3,3,3,3,3,4,4,4,5,5,5,6,6,6,7,7,7,18,16,15,12,12,10,10,8,9,10,10,10,9,9,9,7,8,8,6,5,4,10,10,10,10,11,8,9,8,5,9,12,13,8,7,6,7,6,5,6,5,7,7,6,5,0,7,14,10,15,19,25,-8,0,16,3,40,26,-35,28,2,20,-142,26,33,22,-211,23,35,18,-72,28,0,1,9.333333,9,9,10,37,10.01,14.8,0,99999,4,1,0,18,15,13,5,12,84
160428_1441,1,subjects,1,69,5,23.57,1,5,5,5,6,6,7,7,7,8,8,8,9,9,9,10,11,11,11,13,13,12,0,1,2,0,4,5,2,2,2,5,6,7,9,10,11,15,15,15,20,20,20,10,9,9,9,9,8,9,8,8,8,8,8,8,8,8,13,15,15,16,16,16,7,7,7,8,8,8,7,7,8,9,9,9,10,10,10,8,8,8,7,7,7,0,3,17,7,9,21,23,-105,10,-23,-27,40,-26,-122,26,24,-20,-122,29,33,-10,-196,25,33,-22,-112,28,0,0,10.666667,8,7,7,30,11.57,12,99999,0,4,1,0,20,13,10,7,16,171
160428_1441,1,subjects,1,70,5,22.799999,2,5,5,5,6,6,6,7,7,7,8,8,8,9,9,9,10,10,10,11,11,11,0,0,0,0,0,0,0,0,0,0,0,0,0,0,0,0,0,0,0,0,0,9,9,8,8,8,7,7,7,6,6,6,5,5,5,4,4,4,3,3,3,2,7,7,7,7,7,7,7,7,7,8,8,8,8,8,8,8,8,8,8,8,8,0,0,5,8,7,21,25,10,17,3,-2,40,15,-35,27,29,-46,-45,28,33,2,-89,23,43,18,-65,28,0,0,10.333333,6,8,8,30,10.8,12,99999,0,4,1,0,0,11,8,7,9,47
160428_1441,1,subjects,1,71,5,23.57,3,4,5,5,5,6,6,6,7,8,9,10,11,12,13,14,15,16,17,18,19,20,0,1,2,3,4,5,6,7,8,9,10,11,12,13,14,15,16,17,18,19,20,9,9,8,8,8,7,7,7,8,9,10,11,12,13,14,15,16,17,18,19,20,7,7,7,7,7,7,7,7,8,9,10,11,12,13,14,15,16,17,18,19,20,0,0,6,7,7,19,23,1,-52,-7,-14,40,15,-6,28,22,-66,-103,27,33,15,-62,22,37,-20,-65,28,0,0,10.666667,11,7,7,30,11.57,12,99999,0,4,1,0,20,20,20,7,20,129
160428_1441,1,subjects,1,72,5,22.08,4,11,9,17,12,3,2,11,1,11,10,10,5,2,4,2,12,2,2,18,14,15,7,5,8,15,9,9,9,3,4,8,4,2,12,2,11,12,18,15,10,17,14,6,6,19,14,16,8,15,8,10,8,15,7,11,7,7,16,17,13,18,10,13,12,6,20,10,7,16,10,12,14,7,8,8,0,0,0,9,10,18,1,19,7,0,3,20,17,20,22,24,-12,-81,-110,-114,40,19,1,28,41,27,-16,27,35,29,-94,23,34,25,5,29,0,1,7.3333335,8,8,17,30,10.08,12,0,99999,4,1,0,18,18,20,0,19,167
160505_1026,1,subjects,1,73,1,21.799999,1,5,5,5,6,6,6,7,7,8,9,10,11,12,13,14,15,16,17,18,19,20,0,1,2,3,4,5,6,7,8,9,10,11,12,13,14,15,16,17,18,19,20,9,9,8,8,8,7,7,7,6,6,6,6,5,5,4,4,4,3,3,3,2,7,7,7,7,7,7,7,7,8,9,10,11,12,13,14,15,16,17,18,19,20,0,0,6,10,7,21,28,11,17,-2,-6,39,11,-102,24,29,-28,-66,27,42,25,-95,26,19,-59,-82,26,99999,1,3,3,3,0,12,17,4.8000002,0,99999,5,0,1,20,20,20,7,9,43
160505_1026,1,subjects,1,74,1,23.799999,2,4,5,5,5,6,6,6,7,7,7,8,8,8,9,9,9,10,10,10,11,11,0,1,2,3,4,5,6,7,8,9,10,11,12,13,14,15,16,17,18,19,18,2,9,9,8,8,8,8,8,8,6,6,5,5,5,4,4,4,3,3,3,3,7,7,7,7,7,7,7,7,7,7,7,7,7,7,7,7,7,7,7,7,7,0,1,4,8,7,18,23,8,11,-2,-6,40,18,-143,24,42,18,-21,28,39,16,-37,26,15,-8,-122,28,0,0,2.6666667,3,1,1,12,19,4.8000002,99999,0,5,0,1,19,11,7,7,9,60
160505_1026,1,subjects,1,75,1,16.799999,3,5,5,5,6,6,6,7,7,7,8,8,8,9,9,9,10,10,10,10,10,10,0,1,2,3,4,5,6,6,6,1,4,4,10,9,8,10,10,10,10,10,10,9,9,8,8,8,7,7,7,6,6,6,5,8,8,8,9,9,9,10,10,10,7,7,7,7,7,7,7,7,8,7,7,7,10,10,10,10,10,10,10,10,10,0,8,7,8,7,20,22,6,9,15,10,30,16,-166,23,34,2,-53,28,38,-3,-55,28,-2,3,-119,23,0,0,0.33333334,0,8,8,12,12,4.8000002,99999,0,5,0,1,10,10,10,7,10,63
160505_1026,1,subjects,1,76,1,24.799999,4,5,5,5,5,6,6,7,7,7,7,8,8,8,9,9,10,10,10,11,11,11,0,0,0,0,0,0,0,0,0,20,20,20,20,20,20,20,20,20,20,20,20,9,9,8,8,8,7,7,7,6,6,6,5,5,5,4,4,4,3,3,3,2,7,7,7,7,7,7,7,7,7,7,7,7,7,7,7,20,20,20,20,20,20,0,0,8,12,7,21,28,11,12,4,-11,30,-77,-74,22,29,-104,-67,29,36,11,-94,26,-5,-96,-140,20,0,0,3,0,0,0,12,20,4.8000002,99999,0,5,0,1,20,11,20,7,9,48
160505_1026,1,subjects,1,77,2,24.4,1,4,5,5,5,6,6,6,7,7,7,8,8,8,9,9,20,20,20,20,20,20,0,0,0,0,0,0,0,1,1,4,4,5,6,8,10,20,20,20,20,20,20,2,2,2,8,8,7,7,7,6,6,6,5,5,5,4,20,20,20,20,20,20,8,7,7,7,7,7,7,7,7,7,7,7,20,20,20,20,20,20,20,20,20,0,20,20,20,20,20,10,-5,-4,16,11,40,29,-139,23,43,1,-24,23,38,15,-39,27,8,22,-84,24,0,1,3.6666667,0,0,20,11,20,4.4000001,0,99999,5,0,1,20,20,20,7,20,99
160505_1026,1,subjects,1,78,2,24.4,2,4,4,4,6,6,6,6,6,6,7,7,7,10,9,10,9,9,9,12,12,12,0,0,0,0,0,0,0,0,0,1,1,1,3,4,5,4,4,5,4,4,5,2,2,2,3,3,3,3,3,3,4,4,4,4,4,4,7,7,7,6,6,6,0,1,3,4,5,6,4,7,7,6,6,5,7,6,7,15,15,16,17,16,17,0,0,9,7,9,8,18,-87,-26,-1,-14,31,11,-177,16,21,11,-52,19,30,2,-64,22,3,-21,-144,8,0,0,10.333333,1,0,0,11,20,4.4000001,99999,0,5,0,1,5,12,17,0,7,207
160505_1026,1,subjects,1,79,2,14.4,3,4,5,6,6,6,7,7,8,8,9,9,9,10,10,11,11,12,12,13,14,14,0,2,2,4,5,5,5,5,5,5,6,8,8,8,8,10,12,12,12,15,16,9,9,9,8,9,9,9,9,10,10,10,10,10,10,9,9,9,9,9,9,8,4,4,5,4,4,5,5,5,6,7,7,8,9,9,10,10,10,11,13,14,15,0,10,10,12,10,21,28,2,15,-24,-27,40,15,-70,25,43,21,-17,28,43,26,-34,28,33,14,-83,28,0,0,7,5,10,10,11,10,4.4000001,99999,0,5,0,1,16,14,15,4,10,54
160505_1026,1,subjects,1,80,2,23.4,4,5,5,5,6,6,6,7,7,7,8,8,8,9,9,9,10,10,10,11,11,11,0,1,2,3,3,4,5,6,6,6,6,6,6,6,7,6,6,7,7,8,9,4,4,4,4,7,8,7,7,7,7,6,7,7,7,6,7,7,7,3,3,2,7,7,7,7,7,7,7,7,7,7,7,7,7,7,7,7,7,7,7,6,5,0,1,10,8,7,13,16,-8,-10,-1,-17,30,-15,-86,20,40,6,-33,28,36,23,-12,28,6,1,-58,26,0,0,10,6,1,1,11,19,4.4000001,99999,0,5,0,1,9,11,7,5,8,109
160505_1026,1,subjects,1,81,3,28.4,1,11,13,13,8,15,11,16,11,10,20,10,15,11,19,17,20,17,19,10,18,19,15,5,8,9,0,11,11,0,13,15,10,0,11,20,20,0,9,9,10,10,16,2,2,2,10,3,3,20,10,19,19,10,15,11,13,15,11,16,17,17,19,15,1,18,13,10,4,14,16,6,15,15,11,11,17,13,18,12,13,17,16,14,20,0,0,13,12,18,13,26,-139,-53,5,-3,40,22,-98,25,31,13,-43,27,36,15,-119,23,20,12,-110,18,0,1,7,0,0,0,21,20,8.3999996,0,99999,5,0,1,20,20,20,1,20,273
160505_1026,1,subjects,1,82,3,8.3999996,2,0,1,1,2,3,4,5,6,7,9,10,11,12,13,15,14,15,17,18,19,20,0,0,0,3,3,3,5,6,7,8,9,10,11,12,13,14,15,16,17,18,19,2,2,2,2,2,2,6,6,7,5,6,6,7,7,8,14,14,14,13,14,14,0,0,0,2,2,2,5,5,5,6,7,8,9,9,9,11,11,11,17,18,19,0,20,20,20,10,21,21,-32,19,-78,-83,38,29,-60,25,21,28,-7,24,42,21,-4,28,23,0,-38,19,0,0,0.33333334,0,20,20,21,0,8.3999996,99999,0,5,0,1,19,20,19,0,14,91
160505_1026,1,subjects,1,83,3,27.4,3,4,4,3,4,6,4,6,9,12,6,10,9,8,6,5,7,3,2,4,2,4,2,4,3,3,3,3,2,2,2,6,6,6,6,5,7,6,4,2,4,5,3,0,1,3,3,4,3,5,4,3,6,4,6,5,3,6,5,3,6,8,12,16,3,5,3,6,4,7,7,6,9,4,8,5,8,8,8,8,8,2,6,6,4,0,1,9,14,10,18,22,11,-27,-6,-11,40,12,-61,23,39,24,-8,28,1,23,-6,28,20,19,-77,24,0,0,6.6666665,2,1,1,21,19,8.3999996,99999,0,5,0,1,7,12,9,2,16,96
160505_1026,1,subjects,1,84,3,28.4,4,4,5,5,5,6,6,6,7,7,7,8,8,8,9,9,9,10,10,10,11,11,0,0,0,0,0,0,0,0,0,0,0,0,0,0,0,0,0,0,0,0,0,9,9,8,8,8,7,7,7,6,6,6,5,5,5,4,4,4,3,3,3,2,7,7,7,7,7,7,7,7,7,7,7,7,7,7,7,7,7,7,7,7,7,0,0,0,0,7,18,23,-40,6,7,2,38,17,-67,26,43,22,-1,28,38,28,-1,25,10,3,-21,28,0,0,7,0,0,0,21,20,8.3999996,99999,0,5,0,1,0,11,7,7,9,113
160505_1026,1,subjects,1,85,4,22.799999,1,4,5,5,4,6,6,6,7,7,7,8,8,8,9,9,9,10,10,10,11,11,0,1,2,2,3,4,5,6,7,8,9,10,11,12,13,14,15,16,18,18,18,9,9,8,8,8,7,7,7,6,6,6,5,5,5,4,4,4,3,3,3,2,7,7,7,7,7,7,7,7,7,7,7,7,7,7,7,7,7,7,7,7,7,0,0,9,14,7,20,21,-22,-59,-15,-21,38,22,-101,15,7,17,-14,26,39,17,-32,28,15,-31,-43,27,0,1,3.3333333,2,2,0,12,18,4.8000002,0,99999,5,0,1,18,11,7,7,9,160
160505_1026,1,subjects,1,86,4,14.8,2,10,10,10,11,11,12,16,16,16,7,9,11,14,14,14,11,11,11,8,8,8,10,10,10,9,9,9,8,8,8,14,14,15,14,14,14,10,10,10,8,10,13,10,10,10,10,10,10,10,10,10,15,7,8,10,7,3,10,10,10,3,3,9,10,10,10,10,10,10,18,18,18,9,9,9,15,15,15,4,4,4,8,8,8,0,10,0,0,18,17,24,-65,1,11,5,39,16,-126,21,27,26,-11,26,35,19,-32,27,-1,8,-63,21,0,0,0,10,10,10,12,10,4.8000002,99999,0,5,0,1,15,16,18,4,15,143
160505_1026,1,subjects,1,87,4,24.799999,3,12,12,13,12,12,12,12,12,12,13,13,14,14,14,14,15,15,16,13,14,14,0,0,0,0,0,0,0,0,0,3,4,4,4,4,4,10,10,10,10,10,12,10,10,8,9,9,9,9,9,10,9,9,9,7,7,7,8,8,8,6,7,6,12,13,13,11,11,11,10,10,10,10,10,10,11,11,11,11,10,11,14,14,14,0,0,11,10,12,22,25,-20,-2,5,-3,18,-28,-362,25,29,17,-54,28,34,-68,-60,28,-19,-41,-180,20,0,0,3.3333333,0,0,0,12,20,4.8000002,99999,0,5,0,1,12,16,14,10,10,95
160505_1026,1,subjects,1,88,4,24.799999,4,7,7,8,7,7,7,7,7,7,7,8,8,8,9,9,15,15,15,17,17,19,0,1,2,3,4,5,6,7,8,9,9,10,12,13,14,15,16,17,18,19,20,10,9,8,8,8,7,7,7,7,6,6,5,5,5,5,4,4,4,3,3,2,10,11,11,11,12,11,13,13,13,14,14,14,14,14,14,14,14,14,18,19,19,0,0,7,9,14,20,28,-2,12,-15,-21,37,-3,-175,23,43,-26,-92,27,30,-2,-142,28,-1,-38,-160,27,0,0,3.3333333,3,0,0,12,20,4.8000002,99999,0,5,0,1,20,19,19,10,10,62
160505_1253,1,subjects,1,89,1,20.6,1,4,5,5,5,6,6,6,7,7,7,8,8,8,9,9,9,10,10,10,11,11,0,0,0,0,0,0,0,0,0,0,0,0,6,6,6,5,5,5,4,4,4,9,9,8,8,8,7,7,7,7,6,6,5,5,5,4,4,4,3,3,3,2,7,7,7,7,7,7,7,7,7,7,7,7,7,7,7,7,7,7,7,7,7,0,0,0,10,20,19,21,10,-11,7,-1,38,-11,-99,13,29,2,-80,28,40,-1,-40,27,20,-36,-124,25,99999,0,7,7,0,0,22,11.8,8.8000002,99999,0,6,0,1,6,11,7,7,9,81
160505_1253,1,subjects,1,90,1,20.48,2,4,5,5,5,6,6,6,7,7,7,8,8,8,9,9,9,10,10,11,11,11,0,0,0,0,0,0,0,0,0,0,0,0,0,0,0,0,0,0,0,0,0,2,2,2,2,3,4,5,6,7,8,9,10,7,6,5,5,4,4,5,4,3,7,7,7,7,7,7,7,7,7,7,7,7,7,7,7,7,7,7,7,7,7,0,2,4,12,10,21,27,-84,11,9,5,38,18,-20,23,38,-3,-30,27,40,16,-27,28,23,-9,-70,24,0,0,5.6666665,6,4,4,22,11.68,8.8000002,99999,0,6,0,1,0,11,7,7,10,145
160505_1253,1,subjects,1,91,1,20.139999,3,3,4,4,5,4,6,6,7,7,7,7,8,9,9,9,9,11,10,11,11,11,0,1,0,3,3,5,5,6,6,7,7,8,10,10,8,5,10,4,3,7,8,8,5,5,5,4,5,4,5,6,7,6,7,6,5,5,5,4,4,4,4,2,3,3,5,6,6,5,6,6,6,7,8,9,11,11,11,9,9,8,9,7,10,0,8,5,10,7,13,-9,-26,-81,-56,-66,38,-17,-329,22,38,1,-97,23,40,19,-116,26,15,-40,-149,19,0,1,5.3333335,6,6,5,22,11.34,8.8000002,0,99999,6,0,1,10,11,11,3,8,223
160505_1253,1,subjects,1,92,1,17.040001,4,5,5,5,5,6,6,7,7,8,9,10,11,12,13,14,15,16,17,18,19,20,0,1,2,3,4,5,6,7,8,9,10,11,12,13,14,15,16,17,18,19,20,9,9,8,8,8,7,7,7,6,6,6,5,5,5,4,4,4,3,3,3,2,7,7,7,7,7,7,7,7,8,9,10,11,12,13,14,15,16,17,18,19,20,0,10,12,12,16,21,24,-44,1,5,-1,38,9,-129,17,22,-50,-177,26,39,-27,-91,22,-26,-63,-136,23,0,0,3,5,12,12,22,8.2399998,8.8000002,99999,0,6,0,1,20,20,20,7,9,118
160505_1253,1,subjects,1,93,2,23.16,1,5,5,5,5,6,6,7,7,7,8,8,8,9,9,9,10,10,10,11,11,11,0,1,2,2,3,5,2,3,5,4,3,3,2,2,2,2,2,2,2,2,1,9,9,8,8,8,7,7,7,6,6,6,5,5,5,4,4,4,3,3,3,2,7,7,7,7,7,7,7,7,7,7,7,7,7,7,7,7,7,7,7,7,7,0,5,8,10,7,17,27,10,10,-8,-13,39,22,-195,25,33,-1,-43,25,40,16,-11,28,22,10,-52,26,0,0,11.666667,9,8,8,36,8.7600002,14.4,99999,0,6,0,1,5,11,7,7,9,56
160505_1253,1,subjects,1,94,2,20.1,2,0,1,2,3,4,5,6,7,8,9,10,11,12,13,14,15,15,17,18,19,20,0,1,2,3,4,5,6,7,8,9,10,11,12,13,14,15,16,17,18,19,20,1,2,2,3,4,5,6,7,8,9,10,11,12,13,14,15,16,17,18,19,20,0,1,2,3,4,5,6,7,8,9,10,11,12,13,14,15,16,17,18,19,20,0,5,14,10,15,15,27,3,20,17,13,43,10,-43,25,44,21,-10,24,40,28,-20,27,37,0,-55,25,0,0,9.666667,10,14,14,36,5.6999998,14.4,99999,0,6,0,1,20,20,20,0,20,55
160505_1253,1,subjects,1,95,2,22.9,3,2,3,3,6,6,6,7,14,7,10,17,18,10,10,10,19,19,20,19,19,17,4,1,3,3,2,1,0,0,0,1,1,5,2,11,17,4,2,2,19,12,14,19,19,19,19,19,19,19,16,16,16,16,16,19,19,19,19,19,19,19,19,19,19,15,15,19,19,17,14,18,18,15,13,13,18,12,19,19,15,18,16,19,19,0,9,17,14,19,17,29,-200,-29,-49,-58,37,19,-202,17,-7,-3,-105,28,38,24,-90,24,12,-12,-46,26,0,1,8.666667,10,10,17,36,8.5,14.4,0,99999,6,0,1,19,20,19,12,19,303
160505_1253,1,subjects,1,96,2,23.84,4,4,5,5,5,6,6,6,7,8,9,10,11,12,13,14,15,16,17,18,19,20,0,1,2,3,4,5,6,7,8,9,10,11,12,13,14,15,16,17,17,18,19,9,9,8,8,8,7,7,7,8,9,10,11,12,13,14,15,16,17,18,19,20,7,7,7,7,7,7,7,7,8,9,10,11,12,13,14,15,16,17,18,19,20,0,15,4,15,15,21,26,13,16,3,-5,25,9,-58,20,33,15,-22,24,39,10,-61,17,15,15,-68,24,0,0,13,13,4,4,36,9.4399996,14.4,99999,0,6,0,1,19,20,20,7,20,44
160505_1253,1,subjects,1,97,3,19,1,5,5,5,6,6,6,7,7,7,8,8,8,9,9,9,10,10,10,11,11,11,0,1,2,3,4,5,6,7,8,9,10,11,12,13,14,17,18,19,18,19,20,9,9,8,8,8,7,7,7,6,6,6,5,5,5,4,4,4,3,3,3,2,7,7,7,7,7,7,7,7,7,7,7,7,7,7,7,7,7,7,7,7,7,0,0,0,15,7,15,19,1,-29,2,-7,38,-5,-68,19,33,-35,-91,27,38,8,-49,28,5,-35,-127,24,0,0,9.333333,8,0,0,20,11,8,99999,0,6,0,1,20,11,7,7,9,114
160505_1253,1,subjects,1,98,3,19.040001,2,5,5,5,6,6,6,6,7,7,8,8,8,9,9,9,10,10,10,11,11,11,0,0,0,0,0,0,0,0,0,0,0,0,0,0,0,0,0,0,0,0,20,9,9,8,8,8,7,7,7,6,6,6,5,5,5,4,4,4,3,3,3,2,7,7,7,7,7,7,7,7,7,7,7,7,7,7,7,7,7,7,7,7,7,0,0,4,9,7,18,28,-5,12,-4,-11,38,9,-183,19,38,-16,-15,28,39,24,0,27,24,7,-42,23,0,0,8,7,4,4,20,11.04,8,99999,0,6,0,1,20,11,7,7,9,67
160505_1253,1,subjects,1,99,3,19.34,3,1,2,3,4,5,6,7,8,9,10,11,12,13,14,15,16,17,18,19,0,10,0,1,2,3,4,5,6,11,15,8,10,11,12,13,9,14,15,16,10,10,20,9,10,11,5,6,7,7,8,9,10,10,10,8,9,10,5,4,2,2,1,0,1,2,3,4,5,6,7,8,9,10,11,12,13,14,15,16,17,18,19,19,9,0,9,14,10,14,-67,15,-162,-41,10,3,38,2,-173,20,37,11,-36,24,31,11,-48,27,12,-6,-91,17,0,1,4.6666665,6,6,14,20,11.34,8,0,99999,6,0,1,20,19,19,1,11,375
160505_1253,1,subjects,1,100,3,17.1,4,6,7,7,7,7,7,7,7,7,8,9,9,9,10,10,10,11,11,11,12,12,1,1,2,4,4,4,5,5,5,6,8,5,6,6,6,6,6,6,8,8,8,7,7,7,4,4,4,5,6,7,8,8,8,7,7,7,10,8,8,7,7,7,1,1,1,3,3,3,5,5,5,6,6,6,9,9,9,8,8,8,8,8,8,0,2,10,11,6,17,19,9,-66,4,-5,38,18,-110,9,31,7,-45,25,39,16,-28,26,5,9,-78,22,0,0,6,7,10,10,20,9.1000004,8,99999,0,6,0,1,8,12,9,1,10,141
160505_1253,1,subjects,1,101,4,20.52,1,4,5,5,5,6,6,6,7,8,9,10,11,12,13,14,15,16,17,18,19,20,0,1,2,3,4,5,6,7,8,9,10,11,12,13,14,15,16,17,18,19,20,9,9,8,8,8,7,7,7,8,9,10,11,12,13,14,15,16,17,18,19,20,7,7,7,7,7,7,7,7,8,9,10,11,12,13,14,15,16,17,18,19,20,0,10,9,8,10,19,26,5,17,8,2,35,-1,-92,20,38,-49,-46,28,-17,-47,-31,29,-12,-89,-122,26,0,0,3.6666667,6,9,9,26,10.12,10.4,99999,0,6,0,1,20,20,20,7,20,53
160505_1253,1,subjects,1,102,4,22.1,2,5,5,5,5,6,7,7,7,8,8,9,10,9,10,10,10,12,13,13,13,14,0,1,2,3,4,5,6,7,7,8,8,9,8,9,8,8,9,9,10,10,10,9,9,9,9,9,9,9,10,10,10,10,10,10,10,10,11,10,10,10,10,10,7,7,8,7,7,9,7,7,8,9,9,9,10,10,10,11,11,11,12,11,11,0,6,5,14,9,21,18,-18,-8,8,2,38,4,-102,22,33,-8,-51,28,40,27,-43,26,15,11,-51,25,0,0,5,7,5,5,26,11.7,10.4,99999,0,6,0,1,10,14,12,7,11,107
160505_1253,1,subjects,1,103,4,21.059999,3,5,5,5,6,6,6,7,7,8,9,10,11,12,13,14,15,16,17,18,19,20,0,1,2,3,4,5,6,7,8,9,10,11,12,13,14,15,16,17,18,19,20,9,9,9,8,8,8,8,8,8,8,8,10,8,9,11,10,10,10,12,13,13,7,7,7,7,7,7,7,7,7,10,10,12,12,13,14,15,16,17,18,19,20,0,0,1,17,8,13,16,-126,-18,-70,-75,39,24,-110,22,43,3,-36,28,39,24,-97,28,38,-36,-145,26,0,1,6.3333335,7,7,1,26,10.66,10.4,0,99999,6,0,1,20,20,20,7,13,235
160505_1253,1,subjects,1,104,4,22.1,4,5,5,5,5,6,6,7,7,7,7,8,8,8,9,9,9,10,10,10,11,11,0,1,2,3,4,5,6,7,8,9,10,10,9,9,9,9,9,9,9,9,9,9,9,9,8,8,7,7,7,6,6,6,5,5,5,4,4,4,3,3,3,2,7,7,7,7,7,7,7,7,7,7,7,7,7,7,7,7,7,7,7,7,7,0,0,5,10,7,21,23,9,14,4,0,38,-1,-55,25,38,2,-39,28,40,22,-16,28,15,-3,-57,27,0,0,5,6,5,5,26,11.7,10.4,99999,0,6,0,1,10,11,7,7,9,53
160505_1253,1,subjects,1,105,5,22.34,1,5,5,5,6,6,6,7,7,7,8,8,8,9,9,9,10,10,10,11,11,11,1,2,3,3,4,5,6,7,8,9,9,9,9,9,9,9,9,9,9,9,9,9,9,8,8,8,7,7,7,6,6,6,5,5,5,4,4,4,3,3,3,2,7,7,7,7,7,7,7,7,7,7,7,7,7,7,7,7,7,7,7,7,7,0,5,6,8,7,21,26,16,13,4,0,38,11,-58,22,36,10,-23,23,40,25,-5,27,27,-10,-46,22,0,0,9.666667,8,6,6,31,9.9399996,12.4,99999,0,6,0,1,9,11,7,7,9,44
160505_1253,1,subjects,1,106,5,21.879999,2,5,6,8,8,8,10,10,10,11,12,12,12,13,13,13,14,14,14,15,15,15,0,0,0,1,1,2,2,2,3,3,4,4,4,5,5,6,6,6,7,7,7,10,10,10,9,11,11,12,12,12,12,12,13,13,13,13,14,14,14,15,15,15,7,7,9,9,11,11,12,12,12,13,13,13,14,14,14,15,15,15,16,16,16,0,6,8,20,9,15,24,3,15,2,-3,32,-1,-187,9,32,-37,-71,27,39,17,-93,26,12,-23,-155,25,0,0,9,12,8,8,31,9.4799995,12.4,99999,0,6,0,1,7,15,16,7,15,63
160505_1253,1,subjects,1,107,5,22.540001,3,4,5,5,5,6,6,6,7,7,7,8,8,8,9,9,9,10,10,10,11,11,0,0,0,0,0,0,0,0,0,0,0,0,0,0,0,0,0,0,0,0,0,9,9,8,8,8,7,7,7,6,6,6,5,5,5,4,4,4,3,3,3,2,7,7,7,7,7,7,7,7,7,7,7,7,7,7,7,7,7,7,7,7,7,0,0,11,9,7,21,27,22,16,5,2,38,13,-59,23,43,-4,-7,28,40,26,-7,28,29,-18,-56,25,0,1,8,7,7,11,31,10.14,12.4,0,99999,6,0,1,0,11,7,7,9,34
160505_1253,1,subjects,1,108,5,21.1,4,10,10,10,10,10,10,10,10,10,10,10,10,10,10,10,10,10,10,10,10,10,10,10,10,10,10,10,10,10,10,10,10,10,10,10,10,10,10,10,9,4,7,10,10,10,10,10,10,10,10,10,10,10,10,10,10,10,10,10,10,10,10,10,10,10,10,10,10,10,10,10,10,10,10,10,10,10,10,10,10,10,10,10,10,0,10,10,10,10,-15,26,0,12,-19,-28,42,21,-63,26,43,26,-5,27,38,18,-4,27,42,25,-13,25,0,0,8.333333,10,10,10,31,8.6999998,12.4,99999,0,6,0,1,10,10,10,10,10,97
160516_1039,1,subjects,1,109,1,25.280001,1,0,1,2,3,4,5,6,7,8,9,10,11,12,13,14,15,16,17,18,19,20,0,1,2,2,3,4,5,7,8,8,9,10,11,12,13,14,14,14,15,15,17,2,1,2,3,4,5,6,7,8,9,10,11,12,13,14,15,16,17,18,19,20,5,15,12,15,8,4,14,9,5,7,5,12,12,3,11,8,7,15,8,16,5,0,5,5,14,10,19,27,7,-8,-50,-57,42,22,-49,27,33,13,-23,27,34,-2,-168,19,17,11,-72,22,99999,0,10.333333,10,14,14,47,6.48,18.799999,99999,0,7,1,1,17,20,16,3,20,75
160516_1039,1,subjects,1,110,1,31.4,2,5,5,5,5,5,5,6,6,6,7,7,7,8,8,8,9,9,9,11,11,11,0,0,0,1,1,1,1,1,1,2,2,2,3,3,3,3,3,3,4,4,4,4,4,4,5,5,5,6,7,6,7,6,5,8,7,7,7,7,7,9,9,9,3,4,5,5,5,5,6,7,7,8,8,9,10,11,12,12,12,12,12,12,12,0,0,10,6,7,21,25,18,17,-7,-13,42,5,-30,21,33,-27,-60,25,36,7,-154,22,27,-4,-99,25,0,0,13,7,6,6,47,12.6,18.799999,99999,0,7,1,1,4,11,12,3,9,39
160516_1039,1,subjects,1,111,1,29.469999,3,4,2,3,4,5,6,6,7,8,9,9,11,11,12,13,14,15,16,16,17,18,0,3,2,1,2,1,2,3,4,4,5,5,6,7,7,8,8,9,9,10,19,9,8,7,8,8,7,7,7,6,7,7,6,7,9,9,9,10,13,13,14,16,2,3,4,3,4,5,4,5,6,6,9,10,10,11,12,12,12,13,14,15,20,0,6,8,9,7,15,23,4,-96,-8,-17,43,-60,-96,28,36,-75,-81,22,29,10,-197,24,28,-17,-174,27,0,0,12,7,9,9,47,10.67,18.799999,99999,0,7,1,1,19,18,20,2,16,174
160516_1039,1,subjects,1,112,1,21.200001,4,12,14,13,14,16,15,15,12,16,13,18,16,14,14,16,14,15,15,15,12,16,13,13,11,14,14,10,13,16,16,13,14,17,16,13,17,10,17,11,15,11,16,14,12,18,10,16,11,14,14,14,14,18,15,14,15,15,15,13,19,18,6,20,15,14,13,12,11,10,9,8,9,9,10,11,12,13,16,15,16,17,18,19,16,0,6,14,16,14,4,26,-150,-2,5,-13,43,19,-3,18,33,21,-6,16,36,-12,-271,22,26,-12,-1,22,0,1,9.666667,18,18,16,47,2.4000001,18.799999,0,99999,7,1,1,17,18,19,8,20,242
160516_1039,1,subjects,1,113,2,30.76,1,5,6,7,6,7,8,8,8,8,8,9,10,10,10,11,12,12,12,12,12,12,0,0,0,0,0,0,0,0,0,0,0,0,0,0,0,0,0,0,0,0,0,2,2,2,3,4,4,6,7,7,7,7,7,7,7,7,8,8,8,7,7,7,0,1,2,3,4,5,6,7,8,9,10,11,11,11,11,14,15,15,15,15,15,0,0,8,6,6,20,23,-87,14,9,3,42,8,-16,23,33,10,-58,26,39,22,-64,23,37,0,-85,25,0,0,15.333333,8,6,6,44,13.16,17.6,99999,0,7,1,1,0,12,15,0,8,150
160516_1039,1,subjects,1,114,2,26.24,2,5,5,5,5,5,7,7,7,8,8,8,9,9,9,10,10,11,11,11,11,12,0,0,0,0,0,0,0,0,0,0,0,0,0,0,0,0,0,0,0,0,0,10,10,10,10,10,10,10,10,10,10,10,10,10,10,10,10,10,10,10,10,10,0,0,0,0,0,0,0,0,0,0,0,0,0,0,0,0,0,0,0,0,0,0,0,5,12,8,19,24,14,-24,-110,-116,42,20,-20,15,39,24,-48,25,32,7,-87,24,24,-17,-20,24,0,0,13.333333,10,12,12,44,8.6400003,17.6,99999,0,7,1,1,0,12,0,0,10,87
160516_1039,1,subjects,1,115,2,22.32,3,4,5,5,6,7,7,7,7,7,8,9,9,9,10,10,10,11,11,11,12,12,0,0,0,0,0,0,0,0,0,0,0,0,0,0,0,0,0,0,0,0,0,2,3,4,5,6,7,8,9,10,11,12,13,8,8,8,8,8,8,8,8,9,0,1,2,3,4,5,6,7,8,8,8,8,8,8,8,8,8,8,8,8,8,0,0,17,16,7,12,19,-19,-8,-11,-20,42,-32,-85,26,33,-85,-73,29,32,-8,-97,18,26,-37,-116,27,0,0,12,8,16,16,44,4.7199998,17.6,99999,0,7,1,1,0,12,8,0,13,116
160516_1039,1,subjects,1,116,2,27.4,4,5,5,5,6,6,6,7,7,8,8,8,8,9,9,9,10,10,10,11,11,11,0,0,0,0,0,0,0,0,0,0,0,0,0,0,0,0,0,0,0,0,0,2,2,3,3,3,4,5,6,7,8,9,10,11,12,13,13,14,15,16,17,18,0,1,2,3,4,5,6,7,8,9,10,11,11,12,13,13,14,15,16,17,18,0,0,20,18,19,21,25,11,6,-12,-19,39,-23,-35,28,-32,6,-180,25,31,15,-200,21,5,-39,-91,27,0,1,11.333333,10,10,18,44,9.8000002,17.6,0,99999,7,1,1,0,11,18,0,18,57
160516_1039,1,subjects,1,117,3,28,1,5,5,5,6,6,6,7,7,8,9,10,11,12,13,14,15,16,17,18,19,20,0,1,2,3,4,5,6,7,8,9,10,11,12,13,14,15,16,17,18,19,20,9,10,10,9,8,7,7,7,6,6,6,6,6,6,5,5,5,4,4,4,3,7,7,7,7,7,7,7,7,8,9,10,11,12,13,14,15,16,17,20,20,20,0,0,20,16,17,21,25,15,17,-104,-109,42,-17,-63,25,33,16,-136,28,34,-12,-158,17,5,-57,-145,26,0,0,12.666667,6,16,16,58,4.8000002,23.200001,99999,0,7,1,1,20,20,20,7,10,42
160516_1039,1,subjects,1,118,3,34.529999,2,5,5,5,6,6,6,7,7,7,8,8,8,9,9,9,10,10,10,11,11,11,0,0,0,0,0,0,0,0,0,0,0,0,0,0,0,0,0,0,0,0,0,10,9,9,8,7,8,7,7,6,6,6,5,5,5,4,4,4,3,3,3,2,8,8,8,7,7,7,7,7,7,7,7,7,7,7,7,7,7,7,7,7,7,0,0,20,9,7,23,25,9,-6,8,2,39,22,-11,27,35,0,-59,27,37,24,-59,20,29,16,-133,20,0,0,15,4,9,9,58,11.33,23.200001,99999,0,7,1,1,0,11,8,7,10,69
160516_1039,1,subjects,1,119,3,23.200001,3,12,6,14,0,0,0,0,0,0,0,0,0,0,0,0,0,0,0,0,0,0,0,0,0,0,0,0,0,0,0,10,6,5,4,5,5,6,6,8,9,7,9,15,20,20,18,10,20,12,12,12,17,7,15,0,6,12,20,20,13,20,0,0,9,9,11,0,0,11,1,13,7,11,10,9,5,5,20,11,20,7,0,0,8,0,0,10,20,10,19,23,0,-3,-3,-9,42,17,-17,22,30,21,-17,24,36,24,-86,22,30,21,-48,21,0,0,11.333333,15,20,20,58,0,23.200001,99999,0,7,1,1,10,14,20,0,20,81
160516_1039,1,subjects,1,120,3,31.25,4,9,11,10,10,10,10,10,10,10,9,9,9,9,9,9,8,8,8,8,8,8,7,10,7,9,8,12,9,10,10,10,9,10,11,10,11,9,10,10,10,10,10,10,8,9,7,11,10,13,12,13,12,14,15,11,13,15,13,11,15,10,14,10,12,4,14,16,8,11,16,12,9,13,7,15,8,13,7,7,15,9,9,9,14,0,8,9,9,10,11,18,-217,5,4,-11,43,30,-29,27,44,27,-13,27,34,8,-70,27,37,28,-35,27,0,1,15,13,13,9,58,8.0500002,23.200001,0,99999,7,1,1,12,11,16,4,15,303
160516_1039,1,subjects,1,121,4,26.25,1,3,3,3,5,6,7,8,9,10,11,12,13,14,15,16,17,18,19,20,20,20,0,1,2,3,4,5,6,7,8,9,10,11,12,13,14,15,16,17,18,19,20,7,7,7,8,8,8,10,11,12,13,14,15,16,17,18,19,20,20,20,20,20,7,7,7,8,8,9,9,10,11,11,12,13,14,15,16,17,18,19,20,20,20,0,0,10,15,14,21,21,-83,10,-2,-9,41,-23,-65,28,12,-44,-61,27,33,-12,-122,22,33,-17,-57,28,0,0,13,17,15,15,51,5.8499999,20.4,99999,0,7,1,1,20,20,20,7,20,151
160516_1039,1,subjects,1,122,4,27.24,2,3,3,3,3,3,3,4,4,5,6,6,8,8,9,11,12,13,14,15,16,17,3,3,3,3,4,4,4,5,5,6,7,8,9,11,11,13,13,14,16,17,18,3,3,3,4,4,4,5,5,6,6,7,8,9,10,11,13,14,15,15,16,17,3,3,3,5,5,5,6,6,7,8,8,9,10,10,11,12,13,14,14,15,16,0,7,7,14,8,23,25,20,-13,0,-6,43,3,-55,27,33,-6,-42,26,39,8,-116,25,30,-1,-72,23,0,0,13.333333,10,14,14,51,6.8400002,20.4,99999,0,7,1,1,18,17,16,3,17,65
160516_1039,1,subjects,1,123,4,31.73,3,5,5,5,6,6,6,6,7,8,9,10,11,12,13,14,15,16,17,18,19,20,0,1,2,3,4,5,6,7,8,9,10,11,12,13,14,15,16,17,18,19,20,9,9,8,8,8,7,7,7,8,9,10,11,12,13,14,14,14,16,17,18,18,7,7,7,7,7,7,7,7,8,9,10,11,12,13,14,15,16,17,17,17,17,0,7,20,9,17,19,22,-14,6,-87,-92,42,13,-26,28,33,14,-37,28,32,13,-160,23,28,-14,-85,24,0,0,15,14,9,9,51,11.33,20.4,99999,0,7,1,1,20,20,17,7,18,87
160516_1039,1,subjects,1,124,4,28.17,4,20,20,12,15,15,14,15,10,10,12,11,11,13,13,12,11,11,11,11,12,14,0,0,0,0,0,0,0,0,0,0,0,0,0,0,0,0,0,0,0,0,0,9,9,11,12,12,12,12,11,11,14,14,14,12,13,13,14,13,13,13,13,12,18,13,11,11,12,12,12,12,13,13,12,13,14,12,11,13,11,11,13,16,16,0,0,0,16,10,16,26,8,0,3,-4,43,12,-55,-9,30,11,-56,29,34,-3,-236,22,25,11,-94,24,0,1,12.666667,13,13,16,51,7.77,20.4,0,99999,7,1,1,0,20,18,11,14,70
160516_1039,1,subjects,1,125,5,18,1,5,5,5,6,6,6,6,8,8,17,17,17,17,18,18,19,20,20,20,20,20,0,0,0,0,0,0,6,7,8,16,16,16,14,15,15,16,16,17,20,20,20,10,9,9,17,16,16,16,16,16,15,15,15,20,20,20,20,20,20,20,20,20,0,14,17,17,17,17,17,17,17,18,18,18,20,20,20,20,20,20,20,20,20,0,20,20,20,20,25,25,19,23,8,2,43,19,-208,28,39,16,-134,28,39,22,-241,25,33,-22,-154,26,0,0,9.666667,15,20,20,45,0,18,99999,0,7,1,1,20,20,20,0,20,28
160516_1039,1,subjects,1,126,5,28.200001,2,3,3,3,3,3,3,3,3,3,4,4,4,4,4,4,4,4,4,4,4,4,3,3,3,3,3,3,3,3,3,3,3,3,3,3,3,3,3,3,3,3,3,6,5,4,5,5,4,4,3,3,3,3,3,3,3,4,2,3,3,3,3,3,4,5,5,2,4,4,4,5,4,5,5,5,5,4,5,4,4,3,3,4,4,0,4,8,10,14,23,20,15,8,6,-1,10,-6,-18,25,43,16,-7,27,37,12,-58,26,36,6,-39,27,0,0,13,3,10,10,45,10.2,18,99999,0,7,1,1,3,4,5,2,6,54
160516_1039,1,subjects,1,127,5,27.450001,3,12,11,10,9,8,7,6,7,8,9,10,11,12,13,14,15,16,17,18,19,20,10,10,10,10,10,10,10,10,10,10,10,11,12,13,14,15,16,17,18,19,20,10,10,10,10,10,10,10,10,10,9,10,11,12,13,14,15,16,17,18,19,20,10,11,11,11,12,12,12,13,13,13,14,15,16,16,17,17,18,18,19,19,20,0,10,7,11,17,21,16,5,-13,8,3,42,5,-55,24,32,-151,-98,27,17,-13,-361,22,18,-23,-339,14,0,0,12.666667,13,11,11,45,9.4499998,18,99999,0,7,1,1,20,20,20,10,20,91
160516_1039,1,subjects,1,128,5,31.76,4,4,5,5,5,6,6,6,7,7,7,8,8,8,9,9,9,10,10,10,11,11,0,0,0,0,0,0,0,0,0,0,0,0,0,0,0,0,0,0,0,0,0,9,9,8,8,8,8,7,7,6,6,6,5,5,5,4,4,4,3,3,3,2,8,8,8,7,7,7,7,7,7,7,7,7,7,7,7,7,7,7,7,7,7,0,0,10,8,8,21,25,-67,17,7,0,44,29,-19,23,40,-24,-9,28,36,24,-89,24,29,15,-29,26,0,1,13.666667,4,4,8,45,13.76,18,0,99999,7,1,1,0,11,8,7,9,124
160516_1238,1,subjects,1,129,1,20,1,5,5,5,5,6,6,6,7,7,8,8,8,9,9,9,10,10,10,11,11,11,0,0,0,0,0,0,0,0,0,0,0,0,0,0,0,0,0,0,0,0,0,9,9,8,8,8,7,7,7,6,6,6,5,5,5,4,4,4,3,3,3,3,5,7,7,7,7,7,7,7,7,7,7,8,7,7,7,7,7,7,8,9,9,0,0,20,10,7,21,27,17,17,16,9,42,23,-40,28,38,21,-38,27,35,16,-99,25,37,4,-121,28,99999,0,5.3333335,0,0,0,0,20,0,99999,0,8,1,1,0,11,9,5,9,38
160516_1238,1,subjects,1,130,1,20,2,5,5,5,5,6,6,6,7,7,8,9,10,12,14,16,20,20,20,20,20,20,0,0,0,0,0,0,0,0,0,9,10,11,12,13,14,15,16,17,20,20,20,9,9,9,10,10,10,10,10,10,11,11,11,12,12,12,13,13,13,16,16,16,7,7,7,7,7,7,7,7,7,10,10,10,17,17,17,17,17,17,20,20,20,0,16,20,14,17,21,25,14,-17,19,14,42,-1,-57,28,38,-27,-53,30,35,8,-127,25,37,-68,-121,29,0,1,0,0,0,16,0,20,0,0,99999,8,1,1,20,20,20,7,16,77
160516_1238,1,subjects,1,131,1,20,3,5,5,5,6,6,6,7,7,7,8,8,8,9,9,9,10,10,10,11,11,11,0,0,0,0,0,1,0,0,0,1,0,0,2,3,3,2,2,3,3,4,5,9,9,8,8,8,7,7,7,6,6,6,5,5,5,4,4,4,3,3,3,2,20,17,14,7,8,5,8,7,7,8,7,9,8,8,8,9,9,8,14,19,20,0,0,5,7,7,17,16,3,5,-32,-54,42,24,-42,26,39,16,-25,28,36,16,-374,22,17,8,-48,24,0,0,5.3333335,1,0,0,0,20,0,99999,0,8,1,1,5,11,20,5,9,79
160516_1238,1,subjects,1,132,1,20,4,5,5,5,6,6,6,7,7,7,8,8,8,9,9,9,10,10,10,11,11,11,0,0,0,0,0,0,0,0,0,0,0,0,0,0,0,0,0,0,0,0,0,9,9,8,8,8,7,7,7,6,6,6,5,5,5,4,4,4,3,3,3,2,7,7,7,7,7,7,7,7,7,7,7,7,7,7,7,7,7,7,7,7,7,0,0,7,6,7,23,27,13,-10,17,11,42,21,-12,17,38,16,-31,28,34,-11,-55,21,33,-12,-45,23,0,0,5.3333335,0,0,0,0,20,0,99999,0,8,1,1,0,11,7,7,9,67
160516_1238,1,subjects,1,133,2,20,1,2,2,3,4,4,5,5,6,7,8,9,10,11,12,13,14,15,16,17,18,20,0,1,2,3,4,5,6,7,8,9,10,11,12,13,14,15,16,17,18,19,20,9,8,8,8,8,8,9,9,9,9,10,10,10,10,11,10,10,10,11,11,12,7,7,7,7,7,7,9,9,9,10,10,10,13,13,13,14,14,15,16,16,17,0,0,9,14,14,21,25,7,13,10,6,42,16,-25,25,26,6,-30,27,35,20,-66,24,17,10,-44,27,0,0,0,0,0,0,0,20,0,99999,0,8,1,1,20,20,17,7,12,54
160516_1238,1,subjects,1,134,2,20,2,5,5,5,6,6,6,6,7,7,7,8,8,8,9,9,14,14,15,17,17,17,0,0,0,0,0,0,0,0,0,0,0,0,0,0,0,0,20,20,20,20,20,9,9,9,9,8,8,7,7,7,7,10,10,12,12,12,13,13,13,16,16,16,8,8,8,8,8,9,10,10,10,12,12,12,11,14,14,20,20,20,20,20,20,0,0,9,9,12,21,27,-32,5,-39,-45,42,8,-95,28,38,11,-40,27,35,-6,-138,25,38,-39,-105,27,0,1,0,0,0,0,0,20,0,0,99999,8,1,1,20,17,20,8,16,99
160516_1238,1,subjects,1,135,2,20,3,6,6,6,8,8,9,9,10,11,10,11,11,12,12,14,15,14,14,15,15,16,0,0,0,0,0,0,0,0,0,6,6,7,6,6,6,5,6,5,8,8,10,10,10,10,10,10,10,12,12,12,10,10,12,11,11,10,11,11,11,12,13,13,10,10,10,12,12,11,13,13,13,12,12,12,14,14,14,11,11,11,11,11,11,0,0,10,13,12,21,26,-49,12,14,9,42,18,-21,27,29,20,-22,28,35,21,-132,25,27,-2,-82,24,0,0,0,0,0,0,0,20,0,99999,0,8,1,1,10,16,14,10,13,110
160516_1238,1,subjects,1,136,2,20,4,5,6,5,6,6,7,7,7,7,8,8,8,9,9,9,10,10,11,11,11,11,0,0,0,0,0,0,0,0,0,0,0,0,0,0,0,0,0,0,0,0,0,9,9,8,8,8,7,7,7,6,6,6,5,5,5,4,4,4,3,4,3,3,7,7,7,7,7,7,7,7,7,7,7,7,7,7,7,7,7,7,7,7,7,0,0,7,8,7,20,22,9,13,-75,-81,39,22,-20,25,31,0,-28,27,36,26,-21,22,9,-44,-60,25,0,0,0,0,0,0,0,20,0,99999,0,8,1,1,0,11,7,7,9,56
160516_1238,1,subjects,1,137,3,20,1,4,5,5,5,6,6,6,7,7,7,8,8,8,9,9,9,10,10,10,11,11,0,0,0,0,0,0,0,0,0,0,0,0,0,0,0,0,0,0,0,0,0,9,9,8,8,8,7,7,7,6,6,6,5,5,5,4,4,4,3,3,3,2,7,7,7,7,7,7,7,7,7,7,7,7,7,7,7,7,7,7,7,7,7,0,0,0,9,7,21,27,4,0,6,-2,42,29,6,29,27,-3,-9,29,35,5,-22,24,19,-1,-19,28,0,0,0,0,0,0,0,20,0,99999,0,8,1,1,0,11,7,7,9,68
160516_1238,1,subjects,1,138,3,20,2,5,5,5,5,5,5,6,7,8,9,10,11,12,13,14,15,16,17,18,19,20,0,2,2,3,4,5,6,7,8,9,10,11,12,13,14,15,16,17,18,19,20,9,9,9,8,8,8,7,7,8,9,10,11,12,13,14,15,16,17,18,19,20,7,8,9,8,8,9,8,9,9,9,10,11,12,13,14,15,16,17,18,19,20,0,0,14,9,8,19,23,8,4,15,10,42,24,-21,27,32,9,-36,28,31,19,-116,20,25,18,-41,22,0,1,0,0,0,0,0,20,0,0,99999,8,1,1,20,20,20,7,20,66
160516_1238,1,subjects,1,139,3,20,3,6,7,7,7,8,8,8,9,9,10,10,10,10,11,11,11,12,12,12,13,13,1,2,4,5,5,6,5,5,6,3,3,7,4,4,4,6,5,5,5,5,5,9,10,10,9,9,9,8,8,7,7,6,5,6,6,5,5,5,5,4,4,3,0,2,4,6,8,10,12,14,16,18,20,7,7,8,7,8,8,7,7,7,7,0,0,6,7,9,19,24,8,-30,-5,-9,42,26,-16,27,38,26,-32,28,31,12,-170,24,30,6,-107,25,0,0,0,1,0,0,0,20,0,99999,0,8,1,1,7,13,20,0,10,99
160516_1238,1,subjects,1,140,3,20,4,5,5,5,6,6,6,7,7,7,7,8,8,9,9,9,10,10,10,11,11,11,0,0,0,0,0,0,0,0,0,0,0,0,0,0,0,0,0,0,0,0,0,9,9,8,8,8,7,7,7,6,6,6,5,5,5,4,4,4,3,3,3,2,7,7,8,8,8,9,10,10,10,11,11,11,11,12,12,14,14,15,15,16,20,0,0,6,7,9,19,28,11,8,-111,-116,42,20,-8,26,38,-2,-37,26,35,17,-94,26,16,0,-59,25,0,0,0,0,0,0,0,20,0,99999,0,8,1,1,0,11,20,7,9,54
160516_1238,1,subjects,1,141,4,27.799999,1,0,0,0,0,0,0,0,0,0,1,1,2,2,2,3,3,3,4,4,4,5,0,0,0,0,0,1,2,2,2,2,2,2,4,4,4,5,5,5,4,4,4,9,9,9,8,8,8,8,8,8,8,8,8,8,8,8,10,10,10,12,12,12,7,7,7,7,8,7,7,7,7,8,9,9,12,13,14,12,15,15,16,18,20,0,5,0,12,9,17,27,9,-9,4,-14,42,26,-54,27,36,-20,-53,27,33,4,-305,18,16,-2,-44,22,0,0,7.6666665,2,5,5,32,15,12.8,99999,0,8,1,1,5,5,20,7,12,76
160516_1238,1,subjects,1,142,4,25.799999,2,5,5,5,6,6,6,7,7,7,8,8,8,9,9,9,10,10,13,19,19,20,0,1,2,2,3,4,5,6,7,8,9,9,9,9,9,10,11,12,13,14,20,9,9,8,8,8,7,7,7,8,9,8,8,5,7,7,5,5,8,8,6,6,6,6,7,7,7,7,7,7,7,7,7,9,10,12,12,14,14,14,17,18,20,0,3,14,10,8,19,27,7,-27,-148,-151,31,26,-45,19,36,-19,-85,5,35,7,-92,23,17,-15,-112,20,0,1,8.333333,7,7,3,32,13,12.8,0,99999,8,1,1,20,20,20,6,9,94
160516_1238,1,subjects,1,143,4,12.8,3,19,19,19,19,19,19,19,19,20,20,20,20,20,20,20,20,20,20,20,20,20,20,20,20,20,20,20,20,20,20,20,20,20,20,20,20,20,20,20,20,20,20,19,19,18,18,18,18,17,17,17,17,17,17,17,17,17,16,16,16,17,15,15,19,15,15,19,18,19,19,19,19,19,19,19,13,10,10,19,19,19,19,19,20,0,20,20,14,17,17,25,-21,-53,12,7,40,-46,2,29,32,23,-9,25,35,26,-135,23,27,20,-28,26,0,0,2.6666667,20,20,20,32,0,12.8,99999,0,8,1,1,20,20,20,10,19,152
160516_1238,1,subjects,1,144,4,32.799999,4,5,5,5,5,6,6,6,7,7,7,8,8,8,9,9,9,10,10,10,11,11,0,1,2,3,3,3,4,4,4,5,5,5,6,6,6,7,7,7,8,8,8,10,9,8,8,8,7,7,7,6,6,6,5,5,5,4,4,4,3,3,3,2,7,7,7,7,7,7,7,20,7,7,7,7,7,7,7,7,7,7,7,7,7,0,0,4,14,7,21,22,10,20,-3,-9,40,23,-36,26,38,-32,-42,29,9,16,-95,21,26,-35,-89,26,0,0,9.333333,5,0,0,32,20,12.8,99999,0,8,1,1,8,11,20,7,10,47
160516_1238,1,subjects,1,145,5,25.200001,1,5,5,5,6,6,7,7,8,8,8,9,9,10,10,10,13,14,15,15,16,17,0,0,0,0,0,0,4,0,0,0,0,0,0,0,0,0,0,0,3,5,5,10,10,10,9,9,9,10,10,11,12,12,13,18,18,18,18,18,18,19,19,19,7,7,7,7,7,7,7,7,17,17,17,18,17,17,18,18,18,18,16,11,6,0,0,12,9,7,13,25,13,15,13,9,42,24,-32,28,38,11,-15,27,35,24,-42,22,26,-14,-83,26,0,0,5,0,0,0,13,20,5.1999998,99999,0,8,1,1,5,17,18,6,19,54
160516_1238,1,subjects,1,146,5,22.200001,2,5,4,5,3,6,6,8,7,9,8,8,8,9,9,12,13,13,13,13,11,14,0,1,1,3,4,3,5,6,6,4,4,4,5,5,5,8,8,9,15,15,18,9,8,9,7,8,9,8,7,9,7,8,8,8,10,9,12,14,15,16,15,13,0,3,2,4,5,3,4,6,5,7,8,9,9,10,12,12,13,12,17,18,18,0,5,3,11,10,19,14,11,6,-3,-6,35,12,-38,16,32,12,-152,25,31,14,-176,20,-2,-16,-18,25,0,1,3.3333333,3,3,5,13,17,5.1999998,0,99999,8,1,1,18,14,18,0,16,70
160516_1238,1,subjects,1,147,5,15.2,3,10,10,11,13,14,12,12,12,13,13,14,14,13,14,14,13,12,13,14,12,12,12,10,11,11,10,11,11,10,12,13,12,13,14,11,8,11,9,13,9,13,12,8,10,11,12,14,14,12,11,13,10,11,12,10,11,13,11,12,11,8,10,6,0,1,2,12,16,20,18,7,16,18,10,14,3,4,6,5,8,10,5,6,7,0,10,15,12,10,8,25,14,-16,-31,-37,42,27,-25,25,35,22,-80,20,35,1,-250,23,30,17,-101,24,0,0,1.6666666,11,10,10,13,10,5.1999998,99999,0,8,1,1,14,14,20,0,14,89
160516_1238,1,subjects,1,148,5,25.200001,4,13,16,15,15,16,16,16,17,17,17,17,18,16,16,16,18,17,17,17,17,17,0,0,0,0,0,0,0,0,0,0,0,0,0,0,0,0,0,0,0,0,0,16,16,16,15,16,15,15,15,15,15,15,15,15,15,15,17,17,16,16,16,16,16,16,16,18,14,15,17,17,17,17,17,17,17,17,17,16,16,16,17,16,16,0,0,15,19,6,12,26,-98,-18,-21,-28,40,21,-23,28,35,13,-67,29,36,15,-123,25,30,5,-97,27,0,0,5,0,0,0,13,20,5.1999998,99999,0,8,1,1,0,18,18,14,17,198