session,participant,period,menu,displayed_first,choice
20210625_1400,giaw6638,1,25,q,p
20210625_1400,ty10jr1q,1,2,q,q
20210625_1400,yrmtcn62,1,17,q,p
20210625_1400,duxn23dk,1,16,q,p
20210625_1400,giaw6638,2,14,p,q
20210625_1400,ty10jr1q,2,7,p,q
20210625_1400,yrmtcn62,2,20,p,p
20210625_1400,duxn23dk,2,18,p,q
20210625_1400,giaw6638,3,22,q,q
20210625_1400,ty10jr1q,3,3,p,q
20210625_1400,yrmtcn62,3,14,q,p
20210625_1400,duxn23dk,3,12,q,q
20210625_1400,giaw6638,4,4,p,q
20210625_1400,ty10jr1q,4,18,q,p
20210625_1400,yrmtcn62,4,8,p,q
20210625_1400,duxn23dk,4,8,p,p
20210625_1400,giaw6638,5,13,q,q
20210625_1400,ty10jr1q,5,13,q,q
20210625_1400,yrmtcn62,5,5,p,q
20210625_1400,duxn23dk,5,15,q,q
20210625_1400,giaw6638,6,12,q,q
20210625_1400,ty10jr1q,6,6,p,q
20210625_1400,yrmtcn62,6,21,q,p
20210625_1400,duxn23dk,6,21,q,q
20210625_1400,giaw6638,7,3,p,q
20210625_1400,ty10jr1q,7,14,p,q
20210625_1400,yrmtcn62,7,9,p,p
20210625_1400,duxn23dk,7,24,p,q
20210625_1400,giaw6638,8,15,p,q
20210625_1400,ty10jr1q,8,12,q,q
20210625_1400,yrmtcn62,8,16,p,p
20210625_1400,duxn23dk,8,20,q,p
20210625_1400,giaw6638,9,6,q,q
20210625_1400,ty10jr1q,9,21,p,q
20210625_1400,yrmtcn62,9,24,p,p
20210625_1400,duxn23dk,9,13,p,p
20210625_1400,giaw6638,10,24,p,p
20210625_1400,ty10jr1q,10,24,q,p
20210625_1400,yrmtcn62,10,3,p,q
20210625_1400,duxn23dk,10,1,q,q
20210625_1400,giaw6638,11,19,q,p
20210625_1400,ty10jr1q,11,10,p,q
20210625_1400,yrmtcn62,11,12,p,q
20210625_1400,duxn23dk,11,23,p,p
20210625_1400,giaw6638,12,23,p,q
20210625_1400,ty10jr1q,12,1,q,p
20210625_1400,yrmtcn62,12,7,p,q
20210625_1400,duxn23dk,12,6,p,q
20210625_1400,giaw6638,13,11,q,q
20210625_1400,ty10jr1q,13,19,p,p
20210625_1400,yrmtcn62,13,19,p,p
20210625_1400,duxn23dk,13,2,p,q
20210625_1400,giaw6638,14,16,p,q
20210625_1400,ty10jr1q,14,22,q,q
20210625_1400,yrmtcn62,14,1,q,p
20210625_1400,duxn23dk,14,22,q,q
20210625_1400,giaw6638,15,17,q,q
20210625_1400,ty10jr1q,15,8,p,q
20210625_1400,yrmtcn62,15,4,p,p
20210625_1400,duxn23dk,15,9,q,p
20210625_1400,giaw6638,16,8,q,q
20210625_1400,ty10jr1q,16,15,p,q
20210625_1400,yrmtcn62,16,11,p,p
20210625_1400,duxn23dk,16,19,q,p
20210625_1400,giaw6638,17,20,q,p
20210625_1400,ty10jr1q,17,4,q,p
20210625_1400,yrmtcn62,17,15,p,q
20210625_1400,duxn23dk,17,11,q,p
20210625_1400,giaw6638,18,21,q,q
20210625_1400,ty10jr1q,18,23,q,p
20210625_1400,yrmtcn62,18,23,p,p
20210625_1400,duxn23dk,18,17,p,p
20210625_1400,giaw6638,19,2,p,q
20210625_1400,ty10jr1q,19,17,p,q
20210625_1400,yrmtcn62,19,13,p,q
20210625_1400,duxn23dk,19,3,p,q
20210625_1400,giaw6638,20,9,q,p
20210625_1400,ty10jr1q,20,5,p,q
20210625_1400,yrmtcn62,20,25,p,p
20210625_1400,duxn23dk,20,7,p,p
20210625_1400,giaw6638,21,7,p,q
20210625_1400,ty10jr1q,21,16,q,p
20210625_1400,yrmtcn62,21,6,q,q
20210625_1400,duxn23dk,21,5,p,q
20210625_1400,giaw6638,22,1,p,q
20210625_1400,ty10jr1q,22,9,p,q
20210625_1400,yrmtcn62,22,2,q,p
20210625_1400,duxn23dk,22,25,q,q
20210625_1400,giaw6638,23,18,p,q
20210625_1400,ty10jr1q,23,11,p,q
20210625_1400,yrmtcn62,23,18,q,p
20210625_1400,duxn23dk,23,14,q,p
20210625_1400,giaw6638,24,5,p,q
20210625_1400,ty10jr1q,24,20,q,p
20210625_1400,yrmtcn62,24,22,q,q
20210625_1400,duxn23dk,24,4,q,p
20210625_1400,giaw6638,25,10,q,q
20210625_1400,ty10jr1q,25,25,q,q
20210625_1400,yrmtcn62,25,10,q,q
20210625_1400,duxn23dk,25,10,p,p
20210628_1000,mh9jvilu,1,25,q,p
20210628_1000,kp0napa4,1,2,q,q
20210628_1000,a3an30lg,1,17,q,p
20210628_1000,zw36ul8j,1,16,q,q
20210628_1000,qfx1xiey,1,14,q,p
20210628_1000,l83ddudz,1,16,p,p
20210628_1000,amoaaj9x,1,12,p,q
20210628_1000,owzo4wwo,1,2,q,p
20210628_1000,mh9jvilu,2,14,p,p
20210628_1000,kp0napa4,2,7,p,q
20210628_1000,a3an30lg,2,20,p,p
20210628_1000,zw36ul8j,2,18,p,p
20210628_1000,qfx1xiey,2,4,p,p
20210628_1000,l83ddudz,2,13,p,q
20210628_1000,amoaaj9x,2,2,q,q
20210628_1000,owzo4wwo,2,20,q,p
20210628_1000,mh9jvilu,3,22,q,q
20210628_1000,kp0napa4,3,3,p,q
20210628_1000,a3an30lg,3,14,q,p
20210628_1000,zw36ul8j,3,12,q,p
20210628_1000,qfx1xiey,3,20,p,p
20210628_1000,l83ddudz,3,18,p,p
20210628_1000,amoaaj9x,3,8,p,p
20210628_1000,owzo4wwo,3,6,p,p
20210628_1000,mh9jvilu,4,4,p,p
20210628_1000,kp0napa4,4,18,q,q
20210628_1000,a3an30lg,4,8,p,p
20210628_1000,zw36ul8j,4,8,p,q
20210628_1000,qfx1xiey,4,18,p,q
20210628_1000,l83ddudz,4,14,q,q
20210628_1000,amoaaj9x,4,15,q,p
20210628_1000,owzo4wwo,4,10,q,p
20210628_1000,mh9jvilu,5,13,q,p
20210628_1000,kp0napa4,5,13,q,q
20210628_1000,a3an30lg,5,5,p,p
20210628_1000,zw36ul8j,5,15,q,p
20210628_1000,qfx1xiey,5,17,p,p
20210628_1000,l83ddudz,5,19,q,p
20210628_1000,amoaaj9x,5,1,q,q
20210628_1000,owzo4wwo,5,23,p,p
20210628_1000,mh9jvilu,6,12,q,p
20210628_1000,kp0napa4,6,6,p,q
20210628_1000,a3an30lg,6,21,q,q
20210628_1000,zw36ul8j,6,21,q,q
20210628_1000,qfx1xiey,6,7,p,p
20210628_1000,l83ddudz,6,10,q,q
20210628_1000,amoaaj9x,6,7,q,q
20210628_1000,owzo4wwo,6,8,p,p
20210628_1000,mh9jvilu,7,3,p,q
20210628_1000,kp0napa4,7,14,p,q
20210628_1000,a3an30lg,7,9,p,q
20210628_1000,zw36ul8j,7,24,p,p
20210628_1000,qfx1xiey,7,23,q,q
20210628_1000,l83ddudz,7,12,q,q
20210628_1000,amoaaj9x,7,19,q,p
20210628_1000,owzo4wwo,7,17,p,p
20210628_1000,mh9jvilu,8,15,p,q
20210628_1000,kp0napa4,8,12,q,q
20210628_1000,a3an30lg,8,16,p,p
20210628_1000,zw36ul8j,8,20,q,p
20210628_1000,qfx1xiey,8,11,p,p
20210628_1000,l83ddudz,8,23,q,q
20210628_1000,amoaaj9x,8,11,p,q
20210628_1000,owzo4wwo,8,25,q,p
20210628_1000,mh9jvilu,9,6,q,q
20210628_1000,kp0napa4,9,21,p,q
20210628_1000,a3an30lg,9,24,p,p
20210628_1000,zw36ul8j,9,13,p,q
20210628_1000,qfx1xiey,9,2,q,q
20210628_1000,l83ddudz,9,6,q,q
20210628_1000,amoaaj9x,9,21,p,q
20210628_1000,owzo4wwo,9,7,q,p
20210628_1000,mh9jvilu,10,24,p,p
20210628_1000,kp0napa4,10,24,q,q
20210628_1000,a3an30lg,10,3,p,q
20210628_1000,zw36ul8j,10,1,q,p
20210628_1000,qfx1xiey,10,5,q,q
20210628_1000,l83ddudz,10,25,p,q
20210628_1000,amoaaj9x,10,20,q,p
20210628_1000,owzo4wwo,10,18,p,p
20210628_1000,mh9jvilu,11,19,q,p
20210628_1000,kp0napa4,11,10,p,q
20210628_1000,a3an30lg,11,12,p,q
20210628_1000,zw36ul8j,11,23,p,p
20210628_1000,qfx1xiey,11,25,q,p
20210628_1000,l83ddudz,11,2,q,q
20210628_1000,amoaaj9x,11,22,p,q
20210628_1000,owzo4wwo,11,24,q,p
20210628_1000,mh9jvilu,12,23,p,p
20210628_1000,kp0napa4,12,1,q,q
20210628_1000,a3an30lg,12,7,p,q
20210628_1000,zw36ul8j,12,6,p,q
20210628_1000,qfx1xiey,12,10,p,q
20210628_1000,l83ddudz,12,20,q,p
20210628_1000,amoaaj9x,12,9,p,q
20210628_1000,owzo4wwo,12,22,p,q
20210628_1000,mh9jvilu,13,11,q,q
20210628_1000,kp0napa4,13,19,p,p
20210628_1000,a3an30lg,13,19,p,p
20210628_1000,zw36ul8j,13,2,p,q
20210628_1000,qfx1xiey,13,6,p,q
20210628_1000,l83ddudz,13,17,q,p
20210628_1000,amoaaj9x,13,13,p,q
20210628_1000,owzo4wwo,13,5,p,p
20210628_1000,mh9jvilu,14,16,p,p
20210628_1000,kp0napa4,14,22,q,q
20210628_1000,a3an30lg,14,1,q,q
20210628_1000,zw36ul8j,14,22,q,q
20210628_1000,qfx1xiey,14,21,q,q
20210628_1000,l83ddudz,14,24,p,p
20210628_1000,amoaaj9x,14,5,p,q
20210628_1000,owzo4wwo,14,12,q,p
20210628_1000,mh9jvilu,15,17,q,q
20210628_1000,kp0napa4,15,8,p,p
20210628_1000,a3an30lg,15,4,p,q
20210628_1000,zw36ul8j,15,9,q,p
20210628_1000,qfx1xiey,15,9,p,p
20210628_1000,l83ddudz,15,4,q,q
20210628_1000,amoaaj9x,15,18,p,q
20210628_1000,owzo4wwo,15,14,q,p
20210628_1000,mh9jvilu,16,8,q,q
20210628_1000,kp0napa4,16,15,p,p
20210628_1000,a3an30lg,16,11,p,q
20210628_1000,zw36ul8j,16,19,q,p
20210628_1000,qfx1xiey,16,24,q,p
20210628_1000,l83ddudz,16,1,p,q
20210628_1000,amoaaj9x,16,3,p,q
20210628_1000,owzo4wwo,16,1,p,p
20210628_1000,mh9jvilu,17,20,q,p
20210628_1000,kp0napa4,17,4,q,q
20210628_1000,a3an30lg,17,15,p,p
20210628_1000,zw36ul8j,17,11,q,q
20210628_1000,qfx1xiey,17,1,q,p
20210628_1000,l83ddudz,17,22,p,q
20210628_1000,amoaaj9x,17,24,q,q
20210628_1000,owzo4wwo,17,11,p,p
20210628_1000,mh9jvilu,18,21,q,q
20210628_1000,kp0napa4,18,23,q,q
20210628_1000,a3an30lg,18,23,p,p
20210628_1000,zw36ul8j,18,17,p,p
20210628_1000,qfx1xiey,18,3,q,q
20210628_1000,l83ddudz,18,5,p,q
20210628_1000,amoaaj9x,18,16,q,q
20210628_1000,owzo4wwo,18,19,q,p
20210628_1000,mh9jvilu,19,2,p,q
20210628_1000,kp0napa4,19,17,p,p
20210628_1000,a3an30lg,19,13,p,p
20210628_1000,zw36ul8j,19,3,p,q
20210628_1000,qfx1xiey,19,13,q,q
20210628_1000,l83ddudz,19,7,q,q
20210628_1000,amoaaj9x,19,23,p,q
20210628_1000,owzo4wwo,19,15,p,p
20210628_1000,mh9jvilu,20,9,q,p
20210628_1000,kp0napa4,20,5,p,p
20210628_1000,a3an30lg,20,25,p,p
20210628_1000,zw36ul8j,20,7,p,q
20210628_1000,qfx1xiey,20,22,q,q
20210628_1000,l83ddudz,20,9,p,q
20210628_1000,amoaaj9x,20,17,q,q
20210628_1000,owzo4wwo,20,16,p,p
20210628_1000,mh9jvilu,21,7,p,q
20210628_1000,kp0napa4,21,16,q,p
20210628_1000,a3an30lg,21,6,q,p
20210628_1000,zw36ul8j,21,5,p,q
20210628_1000,qfx1xiey,21,12,q,q
20210628_1000,l83ddudz,21,3,p,q
20210628_1000,amoaaj9x,21,10,p,q
20210628_1000,owzo4wwo,21,21,q,q
20210628_1000,mh9jvilu,22,1,p,p
20210628_1000,kp0napa4,22,9,p,p
20210628_1000,a3an30lg,22,2,q,p
20210628_1000,zw36ul8j,22,25,q,p
20210628_1000,qfx1xiey,22,16,q,p
20210628_1000,l83ddudz,22,11,p,q
20210628_1000,amoaaj9x,22,6,q,q
20210628_1000,owzo4wwo,22,9,q,p
20210628_1000,mh9jvilu,23,18,p,p
20210628_1000,kp0napa4,23,11,p,q
20210628_1000,a3an30lg,23,18,q,p
20210628_1000,zw36ul8j,23,14,q,q
20210628_1000,qfx1xiey,23,19,p,p
20210628_1000,l83ddudz,23,21,q,q
20210628_1000,amoaaj9x,23,14,p,q
20210628_1000,owzo4wwo,23,4,q,p
20210628_1000,mh9jvilu,24,5,p,q
20210628_1000,kp0napa4,24,20,q,p
20210628_1000,a3an30lg,24,22,q,q
20210628_1000,zw36ul8j,24,4,q,q
20210628_1000,qfx1xiey,24,15,q,q
20210628_1000,l83ddudz,24,15,q,q
20210628_1000,amoaaj9x,24,4,q,q
20210628_1000,owzo4wwo,24,3,p,p
20210628_1000,mh9jvilu,25,10,q,q
20210628_1000,kp0napa4,25,25,q,p
20210628_1000,a3an30lg,25,10,q,p
20210628_1000,zw36ul8j,25,10,p,q
20210628_1000,qfx1xiey,25,8,p,q
20210628_1000,l83ddudz,25,8,p,q
20210628_1000,amoaaj9x,25,25,p,q
20210628_1000,owzo4wwo,25,13,q,p
20210628_1200,wh3zb82m,1,25,q,p
20210628_1200,8w3btk72,1,2,q,q
20210628_1200,oumpjj89,1,17,q,p
20210628_1200,x73zfae3,1,16,q,p
20210628_1200,55tkeh2g,1,14,q,p
20210628_1200,owuewxi2,1,16,p,p
20210628_1200,sbmkh1vf,1,12,p,q
20210628_1200,lm9eu726,1,2,q,p
20210628_1200,yfmyonpn,1,17,p,p
20210628_1200,bwjrzusv,1,6,q,q
20210628_1200,wh3zb82m,2,14,p,p
20210628_1200,8w3btk72,2,7,p,q
20210628_1200,oumpjj89,2,20,p,p
20210628_1200,x73zfae3,2,18,p,q
20210628_1200,55tkeh2g,2,4,p,q
20210628_1200,owuewxi2,2,13,p,p
20210628_1200,sbmkh1vf,2,2,q,q
20210628_1200,lm9eu726,2,20,q,p
20210628_1200,yfmyonpn,2,15,p,q
20210628_1200,bwjrzusv,2,1,p,p
20210628_1200,wh3zb82m,3,22,q,p
20210628_1200,8w3btk72,3,3,p,q
20210628_1200,oumpjj89,3,14,q,p
20210628_1200,x73zfae3,3,12,q,q
20210628_1200,55tkeh2g,3,20,p,p
20210628_1200,owuewxi2,3,18,p,p
20210628_1200,sbmkh1vf,3,8,p,p
20210628_1200,lm9eu726,3,6,p,p
20210628_1200,yfmyonpn,3,11,p,q
20210628_1200,bwjrzusv,3,16,p,p
20210628_1200,wh3zb82m,4,4,p,q
20210628_1200,8w3btk72,4,18,q,q
20210628_1200,oumpjj89,4,8,p,q
20210628_1200,x73zfae3,4,8,p,p
20210628_1200,55tkeh2g,4,18,p,p
20210628_1200,owuewxi2,4,14,q,p
20210628_1200,sbmkh1vf,4,15,q,p
20210628_1200,lm9eu726,4,10,q,p
20210628_1200,yfmyonpn,4,3,p,q
20210628_1200,bwjrzusv,4,3,p,q
20210628_1200,wh3zb82m,5,13,q,p
20210628_1200,8w3btk72,5,13,q,q
20210628_1200,oumpjj89,5,5,p,q
20210628_1200,x73zfae3,5,15,q,p
20210628_1200,55tkeh2g,5,17,p,p
20210628_1200,owuewxi2,5,19,q,p
20210628_1200,sbmkh1vf,5,1,q,q
20210628_1200,lm9eu726,5,23,p,p
20210628_1200,yfmyonpn,5,4,q,p
20210628_1200,bwjrzusv,5,17,q,q
20210628_1200,wh3zb82m,6,12,q,p
20210628_1200,8w3btk72,6,6,p,q
20210628_1200,oumpjj89,6,21,q,q
20210628_1200,x73zfae3,6,21,q,q
20210628_1200,55tkeh2g,6,7,p,p
20210628_1200,owuewxi2,6,10,q,p
20210628_1200,sbmkh1vf,6,7,q,q
20210628_1200,lm9eu726,6,8,p,p
20210628_1200,yfmyonpn,6,2,q,q
20210628_1200,bwjrzusv,6,23,q,q
20210628_1200,wh3zb82m,7,3,p,p
20210628_1200,8w3btk72,7,14,p,q
20210628_1200,oumpjj89,7,9,p,q
20210628_1200,x73zfae3,7,24,p,q
20210628_1200,55tkeh2g,7,23,q,p
20210628_1200,owuewxi2,7,12,q,q
20210628_1200,sbmkh1vf,7,19,q,p
20210628_1200,lm9eu726,7,17,p,p
20210628_1200,yfmyonpn,7,5,q,q
20210628_1200,bwjrzusv,7,25,q,p
20210628_1200,wh3zb82m,8,15,p,p
20210628_1200,8w3btk72,8,12,q,q
20210628_1200,oumpjj89,8,16,p,q
20210628_1200,x73zfae3,8,20,q,p
20210628_1200,55tkeh2g,8,11,p,q
20210628_1200,owuewxi2,8,23,q,p
20210628_1200,sbmkh1vf,8,11,p,q
20210628_1200,lm9eu726,8,25,q,p
20210628_1200,yfmyonpn,8,21,q,q
20210628_1200,bwjrzusv,8,21,q,q
20210628_1200,wh3zb82m,9,6,q,p
20210628_1200,8w3btk72,9,21,p,q
20210628_1200,oumpjj89,9,24,p,q
20210628_1200,x73zfae3,9,13,p,q
20210628_1200,55tkeh2g,9,2,q,p
20210628_1200,owuewxi2,9,6,q,q
20210628_1200,sbmkh1vf,9,21,p,q
20210628_1200,lm9eu726,9,7,q,p
20210628_1200,yfmyonpn,9,12,q,q
20210628_1200,bwjrzusv,9,8,q,p
20210628_1200,wh3zb82m,10,24,p,p
20210628_1200,8w3btk72,10,24,q,p
20210628_1200,oumpjj89,10,3,p,q
20210628_1200,x73zfae3,10,1,q,p
20210628_1200,55tkeh2g,10,5,q,p
20210628_1200,owuewxi2,10,25,p,p
20210628_1200,sbmkh1vf,10,20,q,p
20210628_1200,lm9eu726,10,18,p,p
20210628_1200,yfmyonpn,10,1,q,q
20210628_1200,bwjrzusv,10,7,p,q
20210628_1200,wh3zb82m,11,19,q,p
20210628_1200,8w3btk72,11,10,p,q
20210628_1200,oumpjj89,11,12,p,q
20210628_1200,x73zfae3,11,23,p,q
20210628_1200,55tkeh2g,11,25,q,p
20210628_1200,owuewxi2,11,2,q,q
20210628_1200,sbmkh1vf,11,22,p,q
20210628_1200,lm9eu726,11,24,q,p
20210628_1200,yfmyonpn,11,9,q,q
20210628_1200,bwjrzusv,11,5,q,q
20210628_1200,wh3zb82m,12,23,p,p
20210628_1200,8w3btk72,12,1,q,p
20210628_1200,oumpjj89,12,7,p,q
20210628_1200,x73zfae3,12,6,p,p
20210628_1200,55tkeh2g,12,10,p,q
20210628_1200,owuewxi2,12,20,q,p
20210628_1200,sbmkh1vf,12,9,p,p
20210628_1200,lm9eu726,12,22,p,q
20210628_1200,yfmyonpn,12,13,p,q
20210628_1200,bwjrzusv,12,2,p,q
20210628_1200,wh3zb82m,13,11,q,p
20210628_1200,8w3btk72,13,19,p,p
20210628_1200,oumpjj89,13,19,p,p
20210628_1200,x73zfae3,13,2,p,q
20210628_1200,55tkeh2g,13,6,p,q
20210628_1200,owuewxi2,13,17,q,q
20210628_1200,sbmkh1vf,13,13,p,q
20210628_1200,lm9eu726,13,5,p,p
20210628_1200,yfmyonpn,13,6,p,q
20210628_1200,bwjrzusv,13,24,p,q
20210628_1200,wh3zb82m,14,16,p,p
20210628_1200,8w3btk72,14,22,q,q
20210628_1200,oumpjj89,14,1,q,q
20210628_1200,x73zfae3,14,22,q,q
20210628_1200,55tkeh2g,14,21,q,q
20210628_1200,owuewxi2,14,24,p,p
20210628_1200,sbmkh1vf,14,5,p,q
20210628_1200,lm9eu726,14,12,q,p
20210628_1200,yfmyonpn,14,19,p,p
20210628_1200,bwjrzusv,14,4,q,q
20210628_1200,wh3zb82m,15,17,q,p
20210628_1200,8w3btk72,15,8,p,q
20210628_1200,oumpjj89,15,4,p,q
20210628_1200,x73zfae3,15,9,q,q
20210628_1200,55tkeh2g,15,9,p,p
20210628_1200,owuewxi2,15,4,q,q
20210628_1200,sbmkh1vf,15,18,p,p
20210628_1200,lm9eu726,15,14,q,p
20210628_1200,yfmyonpn,15,18,q,q
20210628_1200,bwjrzusv,15,12,p,p
20210628_1200,wh3zb82m,16,8,q,p
20210628_1200,8w3btk72,16,15,p,q
20210628_1200,oumpjj89,16,11,p,q
20210628_1200,x73zfae3,16,19,q,p
20210628_1200,55tkeh2g,16,24,q,p
20210628_1200,owuewxi2,16,1,p,p
20210628_1200,sbmkh1vf,16,3,p,q
20210628_1200,lm9eu726,16,1,p,p
20210628_1200,yfmyonpn,16,8,q,q
20210628_1200,bwjrzusv,16,10,q,q
20210628_1200,wh3zb82m,17,20,q,p
20210628_1200,8w3btk72,17,4,q,p
20210628_1200,oumpjj89,17,15,p,q
20210628_1200,x73zfae3,17,11,q,q
20210628_1200,55tkeh2g,17,1,q,q
20210628_1200,owuewxi2,17,22,p,q
20210628_1200,sbmkh1vf,17,24,q,p
20210628_1200,lm9eu726,17,11,p,q
20210628_1200,yfmyonpn,17,22,q,q
20210628_1200,bwjrzusv,17,14,q,q
20210628_1200,wh3zb82m,18,21,q,p
20210628_1200,8w3btk72,18,23,q,q
20210628_1200,oumpjj89,18,23,p,q
20210628_1200,x73zfae3,18,17,p,p
20210628_1200,55tkeh2g,18,3,q,q
20210628_1200,owuewxi2,18,5,p,q
20210628_1200,sbmkh1vf,18,16,q,p
20210628_1200,lm9eu726,18,19,q,p
20210628_1200,yfmyonpn,18,16,q,p
20210628_1200,bwjrzusv,18,18,p,q
20210628_1200,wh3zb82m,19,2,p,p
20210628_1200,8w3btk72,19,17,p,q
20210628_1200,oumpjj89,19,13,p,q
20210628_1200,x73zfae3,19,3,p,q
20210628_1200,55tkeh2g,19,13,q,p
20210628_1200,owuewxi2,19,7,q,q
20210628_1200,sbmkh1vf,19,23,p,p
20210628_1200,lm9eu726,19,15,p,p
20210628_1200,yfmyonpn,19,20,p,p
20210628_1200,bwjrzusv,19,9,p,p
20210628_1200,wh3zb82m,20,9,q,p
20210628_1200,8w3btk72,20,5,p,q
20210628_1200,oumpjj89,20,25,p,q
20210628_1200,x73zfae3,20,7,p,p
20210628_1200,55tkeh2g,20,22,q,q
20210628_1200,owuewxi2,20,9,p,p
20210628_1200,sbmkh1vf,20,17,q,p
20210628_1200,lm9eu726,20,16,p,p
20210628_1200,yfmyonpn,20,7,p,q
20210628_1200,bwjrzusv,20,15,q,q
20210628_1200,wh3zb82m,21,7,p,p
20210628_1200,8w3btk72,21,16,q,p
20210628_1200,oumpjj89,21,6,q,q
20210628_1200,x73zfae3,21,5,p,p
20210628_1200,55tkeh2g,21,12,q,p
20210628_1200,owuewxi2,21,3,p,q
20210628_1200,sbmkh1vf,21,10,p,q
20210628_1200,lm9eu726,21,21,q,q
20210628_1200,yfmyonpn,21,10,q,q
20210628_1200,bwjrzusv,21,13,q,q
20210628_1200,wh3zb82m,22,1,p,p
20210628_1200,8w3btk72,22,9,p,p
20210628_1200,oumpjj89,22,2,q,q
20210628_1200,x73zfae3,22,25,q,q
20210628_1200,55tkeh2g,22,16,q,p
20210628_1200,owuewxi2,22,11,p,q
20210628_1200,sbmkh1vf,22,6,q,q
20210628_1200,lm9eu726,22,9,q,p
20210628_1200,yfmyonpn,22,14,p,q
20210628_1200,bwjrzusv,22,22,q,q
20210628_1200,wh3zb82m,23,18,p,p
20210628_1200,8w3btk72,23,11,p,q
20210628_1200,oumpjj89,23,18,q,q
20210628_1200,x73zfae3,23,14,q,q
20210628_1200,55tkeh2g,23,19,p,p
20210628_1200,owuewxi2,23,21,q,q
20210628_1200,sbmkh1vf,23,14,p,q
20210628_1200,lm9eu726,23,4,q,p
20210628_1200,yfmyonpn,23,23,p,q
20210628_1200,bwjrzusv,23,20,q,p
20210628_1200,wh3zb82m,24,5,p,p
20210628_1200,8w3btk72,24,20,q,p
20210628_1200,oumpjj89,24,22,q,q
20210628_1200,x73zfae3,24,4,q,p
20210628_1200,55tkeh2g,24,15,q,p
20210628_1200,owuewxi2,24,15,q,q
20210628_1200,sbmkh1vf,24,4,q,p
20210628_1200,lm9eu726,24,3,p,p
20210628_1200,yfmyonpn,24,24,q,q
20210628_1200,bwjrzusv,24,19,p,p
20210628_1200,wh3zb82m,25,10,q,p
20210628_1200,8w3btk72,25,25,q,q
20210628_1200,oumpjj89,25,10,q,q
20210628_1200,x73zfae3,25,10,p,p
20210628_1200,55tkeh2g,25,8,p,p
20210628_1200,owuewxi2,25,8,p,q
20210628_1200,sbmkh1vf,25,25,p,p
20210628_1200,lm9eu726,25,13,q,p
20210628_1200,yfmyonpn,25,25,q,p
20210628_1200,bwjrzusv,25,11,p,q
20210628_1400,cpgmvfnm,1,25,q,q
20210628_1400,o9o05hu1,1,2,q,p
20210628_1400,h8m28kat,1,17,q,p
20210628_1400,5sc4ncpy,1,16,q,p
20210628_1400,xio1kk58,1,14,q,p
20210628_1400,twsriyk7,1,16,p,p
20210628_1400,nnri11b7,1,12,p,q
20210628_1400,yjzfuu2h,1,2,q,q
20210628_1400,3n62rgd0,1,17,p,p
20210628_1400,9f99a2hb,1,6,q,q
20210628_1400,cpgmvfnm,2,14,p,q
20210628_1400,o9o05hu1,2,7,p,q
20210628_1400,h8m28kat,2,20,p,p
20210628_1400,5sc4ncpy,2,18,p,q
20210628_1400,xio1kk58,2,4,p,p
20210628_1400,twsriyk7,2,13,p,q
20210628_1400,nnri11b7,2,2,q,p
20210628_1400,yjzfuu2h,2,20,q,p
20210628_1400,3n62rgd0,2,15,p,p
20210628_1400,9f99a2hb,2,1,p,p
20210628_1400,cpgmvfnm,3,22,q,q
20210628_1400,o9o05hu1,3,3,p,q
20210628_1400,h8m28kat,3,14,q,p
20210628_1400,5sc4ncpy,3,12,q,q
20210628_1400,xio1kk58,3,20,p,p
20210628_1400,twsriyk7,3,18,p,q
20210628_1400,nnri11b7,3,8,p,q
20210628_1400,yjzfuu2h,3,6,p,q
20210628_1400,3n62rgd0,3,11,p,p
20210628_1400,9f99a2hb,3,16,p,q
20210628_1400,cpgmvfnm,4,4,p,q
20210628_1400,o9o05hu1,4,18,q,q
20210628_1400,h8m28kat,4,8,p,p
20210628_1400,5sc4ncpy,4,8,p,q
20210628_1400,xio1kk58,4,18,p,p
20210628_1400,twsriyk7,4,14,q,p
20210628_1400,nnri11b7,4,15,q,p
20210628_1400,yjzfuu2h,4,10,q,p
20210628_1400,3n62rgd0,4,3,p,q
20210628_1400,9f99a2hb,4,3,p,q
20210628_1400,cpgmvfnm,5,13,q,q
20210628_1400,o9o05hu1,5,13,q,q
20210628_1400,h8m28kat,5,5,p,p
20210628_1400,5sc4ncpy,5,15,q,q
20210628_1400,xio1kk58,5,17,p,q
20210628_1400,twsriyk7,5,19,q,p
20210628_1400,nnri11b7,5,1,q,p
20210628_1400,yjzfuu2h,5,23,p,q
20210628_1400,3n62rgd0,5,4,q,q
20210628_1400,9f99a2hb,5,17,q,p
20210628_1400,cpgmvfnm,6,12,q,q
20210628_1400,o9o05hu1,6,6,p,q
20210628_1400,h8m28kat,6,21,q,q
20210628_1400,5sc4ncpy,6,21,q,q
20210628_1400,xio1kk58,6,7,p,q
20210628_1400,twsriyk7,6,10,q,p
20210628_1400,nnri11b7,6,7,q,q
20210628_1400,yjzfuu2h,6,8,p,q
20210628_1400,3n62rgd0,6,2,q,q
20210628_1400,9f99a2hb,6,23,q,p
20210628_1400,cpgmvfnm,7,3,p,q
20210628_1400,o9o05hu1,7,14,p,q
20210628_1400,h8m28kat,7,9,p,p
20210628_1400,5sc4ncpy,7,24,p,q
20210628_1400,xio1kk58,7,23,q,p
20210628_1400,twsriyk7,7,12,q,q
20210628_1400,nnri11b7,7,19,q,p
20210628_1400,yjzfuu2h,7,17,p,p
20210628_1400,3n62rgd0,7,5,q,q
20210628_1400,9f99a2hb,7,25,q,p
20210628_1400,cpgmvfnm,8,15,p,q
20210628_1400,o9o05hu1,8,12,q,q
20210628_1400,h8m28kat,8,16,p,p
20210628_1400,5sc4ncpy,8,20,q,p
20210628_1400,xio1kk58,8,11,p,q
20210628_1400,twsriyk7,8,23,q,p
20210628_1400,nnri11b7,8,11,p,p
20210628_1400,yjzfuu2h,8,25,q,p
20210628_1400,3n62rgd0,8,21,q,q
20210628_1400,9f99a2hb,8,21,q,q
20210628_1400,cpgmvfnm,9,6,q,q
20210628_1400,o9o05hu1,9,21,p,q
20210628_1400,h8m28kat,9,24,p,p
20210628_1400,5sc4ncpy,9,13,p,q
20210628_1400,xio1kk58,9,2,q,q
20210628_1400,twsriyk7,9,6,q,q
20210628_1400,nnri11b7,9,21,p,p
20210628_1400,yjzfuu2h,9,7,q,q
20210628_1400,3n62rgd0,9,12,q,p
20210628_1400,9f99a2hb,9,8,q,q
20210628_1400,cpgmvfnm,10,24,p,q
20210628_1400,o9o05hu1,10,24,q,q
20210628_1400,h8m28kat,10,3,p,p
20210628_1400,5sc4ncpy,10,1,q,q
20210628_1400,xio1kk58,10,5,q,q
20210628_1400,twsriyk7,10,25,p,p
20210628_1400,nnri11b7,10,20,q,p
20210628_1400,yjzfuu2h,10,18,p,q
20210628_1400,3n62rgd0,10,1,q,q
20210628_1400,9f99a2hb,10,7,p,q
20210628_1400,cpgmvfnm,11,19,q,q
20210628_1400,o9o05hu1,11,10,p,q
20210628_1400,h8m28kat,11,12,p,p
20210628_1400,5sc4ncpy,11,23,p,q
20210628_1400,xio1kk58,11,25,q,p
20210628_1400,twsriyk7,11,2,q,p
20210628_1400,nnri11b7,11,22,p,q
20210628_1400,yjzfuu2h,11,24,q,q
20210628_1400,3n62rgd0,11,9,q,q
20210628_1400,9f99a2hb,11,5,q,q
20210628_1400,cpgmvfnm,12,23,p,q
20210628_1400,o9o05hu1,12,1,q,p
20210628_1400,h8m28kat,12,7,p,p
20210628_1400,5sc4ncpy,12,6,p,q
20210628_1400,xio1kk58,12,10,p,p
20210628_1400,twsriyk7,12,20,q,p
20210628_1400,nnri11b7,12,9,p,p
20210628_1400,yjzfuu2h,12,22,p,q
20210628_1400,3n62rgd0,12,13,p,p
20210628_1400,9f99a2hb,12,2,p,q
20210628_1400,cpgmvfnm,13,11,q,q
20210628_1400,o9o05hu1,13,19,p,p
20210628_1400,h8m28kat,13,19,p,p
20210628_1400,5sc4ncpy,13,2,p,q
20210628_1400,xio1kk58,13,6,p,p
20210628_1400,twsriyk7,13,17,q,p
20210628_1400,nnri11b7,13,13,p,q
20210628_1400,yjzfuu2h,13,5,p,q
20210628_1400,3n62rgd0,13,6,p,p
20210628_1400,9f99a2hb,13,24,p,q
20210628_1400,cpgmvfnm,14,16,p,q
20210628_1400,o9o05hu1,14,22,q,q
20210628_1400,h8m28kat,14,1,q,p
20210628_1400,5sc4ncpy,14,22,q,q
20210628_1400,xio1kk58,14,21,q,q
20210628_1400,twsriyk7,14,24,p,p
20210628_1400,nnri11b7,14,5,p,q
20210628_1400,yjzfuu2h,14,12,q,q
20210628_1400,3n62rgd0,14,19,p,p
20210628_1400,9f99a2hb,14,4,q,p
20210628_1400,cpgmvfnm,15,17,q,q
20210628_1400,o9o05hu1,15,8,p,q
20210628_1400,h8m28kat,15,4,p,p
20210628_1400,5sc4ncpy,15,9,q,q
20210628_1400,xio1kk58,15,9,p,q
20210628_1400,twsriyk7,15,4,q,p
20210628_1400,nnri11b7,15,18,p,p
20210628_1400,yjzfuu2h,15,14,q,q
20210628_1400,3n62rgd0,15,18,q,q
20210628_1400,9f99a2hb,15,12,p,q
20210628_1400,cpgmvfnm,16,8,q,q
20210628_1400,o9o05hu1,16,15,p,q
20210628_1400,h8m28kat,16,11,p,p
20210628_1400,5sc4ncpy,16,19,q,p
20210628_1400,xio1kk58,16,24,q,q
20210628_1400,twsriyk7,16,1,p,p
20210628_1400,nnri11b7,16,3,p,q
20210628_1400,yjzfuu2h,16,1,p,q
20210628_1400,3n62rgd0,16,8,q,p
20210628_1400,9f99a2hb,16,10,q,q
20210628_1400,cpgmvfnm,17,20,q,q
20210628_1400,o9o05hu1,17,4,q,q
20210628_1400,h8m28kat,17,15,p,q
20210628_1400,5sc4ncpy,17,11,q,q
20210628_1400,xio1kk58,17,1,q,p
20210628_1400,twsriyk7,17,22,p,q
20210628_1400,nnri11b7,17,24,q,p
20210628_1400,yjzfuu2h,17,11,p,p
20210628_1400,3n62rgd0,17,22,q,q
20210628_1400,9f99a2hb,17,14,q,p
20210628_1400,cpgmvfnm,18,21,q,q
20210628_1400,o9o05hu1,18,23,q,q
20210628_1400,h8m28kat,18,23,p,p
20210628_1400,5sc4ncpy,18,17,p,q
20210628_1400,xio1kk58,18,3,q,p
20210628_1400,twsriyk7,18,5,p,p
20210628_1400,nnri11b7,18,16,q,p
20210628_1400,yjzfuu2h,18,19,q,p
20210628_1400,3n62rgd0,18,16,q,p
20210628_1400,9f99a2hb,18,18,p,p
20210628_1400,cpgmvfnm,19,2,p,q
20210628_1400,o9o05hu1,19,17,p,q
20210628_1400,h8m28kat,19,13,p,p
20210628_1400,5sc4ncpy,19,3,p,q
20210628_1400,xio1kk58,19,13,q,q
20210628_1400,twsriyk7,19,7,q,p
20210628_1400,nnri11b7,19,23,p,q
20210628_1400,yjzfuu2h,19,15,p,q
20210628_1400,3n62rgd0,19,20,p,p
20210628_1400,9f99a2hb,19,9,p,q
20210628_1400,cpgmvfnm,20,9,q,q
20210628_1400,o9o05hu1,20,5,p,q
20210628_1400,h8m28kat,20,25,p,p
20210628_1400,5sc4ncpy,20,7,p,q
20210628_1400,xio1kk58,20,22,q,q
20210628_1400,twsriyk7,20,9,p,p
20210628_1400,nnri11b7,20,17,q,p
20210628_1400,yjzfuu2h,20,16,p,q
20210628_1400,3n62rgd0,20,7,p,q
20210628_1400,9f99a2hb,20,15,q,q
20210628_1400,cpgmvfnm,21,7,p,q
20210628_1400,o9o05hu1,21,16,q,q
20210628_1400,h8m28kat,21,6,q,p
20210628_1400,5sc4ncpy,21,5,p,q
20210628_1400,xio1kk58,21,12,q,q
20210628_1400,twsriyk7,21,3,p,q
20210628_1400,nnri11b7,21,10,p,q
20210628_1400,yjzfuu2h,21,21,q,q
20210628_1400,3n62rgd0,21,10,q,q
20210628_1400,9f99a2hb,21,13,q,q
20210628_1400,cpgmvfnm,22,1,p,q
20210628_1400,o9o05hu1,22,9,p,q
20210628_1400,h8m28kat,22,2,q,p
20210628_1400,5sc4ncpy,22,25,q,q
20210628_1400,xio1kk58,22,16,q,q
20210628_1400,twsriyk7,22,11,p,q
20210628_1400,nnri11b7,22,6,q,q
20210628_1400,yjzfuu2h,22,9,q,q
20210628_1400,3n62rgd0,22,14,p,p
20210628_1400,9f99a2hb,22,22,q,q
20210628_1400,cpgmvfnm,23,18,p,q
20210628_1400,o9o05hu1,23,11,p,q
20210628_1400,h8m28kat,23,18,q,p
20210628_1400,5sc4ncpy,23,14,q,q
20210628_1400,xio1kk58,23,19,p,p
20210628_1400,twsriyk7,23,21,q,q
20210628_1400,nnri11b7,23,14,p,p
20210628_1400,yjzfuu2h,23,4,q,q
20210628_1400,3n62rgd0,23,23,p,p
20210628_1400,9f99a2hb,23,20,q,p
20210628_1400,cpgmvfnm,24,5,p,q
20210628_1400,o9o05hu1,24,20,q,p
20210628_1400,h8m28kat,24,22,q,p
20210628_1400,5sc4ncpy,24,4,q,q
20210628_1400,xio1kk58,24,15,q,p
20210628_1400,twsriyk7,24,15,q,p
20210628_1400,nnri11b7,24,4,q,p
20210628_1400,yjzfuu2h,24,3,p,q
20210628_1400,3n62rgd0,24,24,q,p
20210628_1400,9f99a2hb,24,19,p,q
20210628_1400,cpgmvfnm,25,10,q,q
20210628_1400,o9o05hu1,25,25,q,q
20210628_1400,h8m28kat,25,10,q,p
20210628_1400,5sc4ncpy,25,10,p,q
20210628_1400,xio1kk58,25,8,p,p
20210628_1400,twsriyk7,25,8,p,p
20210628_1400,nnri11b7,25,25,p,q
20210628_1400,yjzfuu2h,25,13,q,q
20210628_1400,3n62rgd0,25,25,q,p
20210628_1400,9f99a2hb,25,11,p,q
20210628_1600,zu809ozq,1,14,q,p
20210628_1600,ji7tr1ce,1,16,p,q
20210628_1600,mcywebaj,1,12,p,q
20210628_1600,mffpnq55,1,2,q,q
20210628_1600,qhbw7gan,1,17,p,q
20210628_1600,gw7ncvdt,1,6,q,q
20210628_1600,djzpq5f3,1,22,p,q
20210628_1600,zu809ozq,2,4,p,p
20210628_1600,ji7tr1ce,2,13,p,q
20210628_1600,mcywebaj,2,2,q,p
20210628_1600,mffpnq55,2,20,q,p
20210628_1600,qhbw7gan,2,15,p,q
20210628_1600,gw7ncvdt,2,1,p,q
20210628_1600,djzpq5f3,2,20,p,p
20210628_1600,zu809ozq,3,20,p,p
20210628_1600,ji7tr1ce,3,18,p,p
20210628_1600,mcywebaj,3,8,p,q
20210628_1600,mffpnq55,3,6,p,q
20210628_1600,qhbw7gan,3,11,p,q
20210628_1600,gw7ncvdt,3,16,p,p
20210628_1600,djzpq5f3,3,8,p,p
20210628_1600,zu809ozq,4,18,p,p
20210628_1600,ji7tr1ce,4,14,q,p
20210628_1600,mcywebaj,4,15,q,p
20210628_1600,mffpnq55,4,10,q,q
20210628_1600,qhbw7gan,4,3,p,p
20210628_1600,gw7ncvdt,4,3,p,q
20210628_1600,djzpq5f3,4,18,p,p
20210628_1600,zu809ozq,5,17,p,p
20210628_1600,ji7tr1ce,5,19,q,p
20210628_1600,mcywebaj,5,1,q,q
20210628_1600,mffpnq55,5,23,p,q
20210628_1600,qhbw7gan,5,4,q,p
20210628_1600,gw7ncvdt,5,17,q,p
20210628_1600,djzpq5f3,5,3,p,q
20210628_1600,zu809ozq,6,7,p,q
20210628_1600,ji7tr1ce,6,10,q,q
20210628_1600,mcywebaj,6,7,q,p
20210628_1600,mffpnq55,6,8,p,q
20210628_1600,qhbw7gan,6,2,q,q
20210628_1600,gw7ncvdt,6,23,q,p
20210628_1600,djzpq5f3,6,14,p,q
20210628_1600,zu809ozq,7,23,q,p
20210628_1600,ji7tr1ce,7,12,q,p
20210628_1600,mcywebaj,7,19,q,p
20210628_1600,mffpnq55,7,17,p,q
20210628_1600,qhbw7gan,7,5,q,p
20210628_1600,gw7ncvdt,7,25,q,p
20210628_1600,djzpq5f3,7,24,p,q
20210628_1600,zu809ozq,8,11,p,p
20210628_1600,ji7tr1ce,8,23,q,p
20210628_1600,mcywebaj,8,11,p,p
20210628_1600,mffpnq55,8,25,q,q
20210628_1600,qhbw7gan,8,21,q,q
20210628_1600,gw7ncvdt,8,21,q,q
20210628_1600,djzpq5f3,8,19,q,p
20210628_1600,zu809ozq,9,2,q,q
20210628_1600,ji7tr1ce,9,6,q,q
20210628_1600,mcywebaj,9,21,p,q
20210628_1600,mffpnq55,9,7,q,q
20210628_1600,qhbw7gan,9,12,q,p
20210628_1600,gw7ncvdt,9,8,q,p
20210628_1600,djzpq5f3,9,6,p,q
20210628_1600,zu809ozq,10,5,q,q
20210628_1600,ji7tr1ce,10,25,p,p
20210628_1600,mcywebaj,10,20,q,p
20210628_1600,mffpnq55,10,18,p,q
20210628_1600,qhbw7gan,10,1,q,p
20210628_1600,gw7ncvdt,10,7,p,p
20210628_1600,djzpq5f3,10,5,p,q
20210628_1600,zu809ozq,11,25,q,p
20210628_1600,ji7tr1ce,11,2,q,q
20210628_1600,mcywebaj,11,22,p,q
20210628_1600,mffpnq55,11,24,q,p
20210628_1600,qhbw7gan,11,9,q,q
20210628_1600,gw7ncvdt,11,5,q,q
20210628_1600,djzpq5f3,11,7,q,q
20210628_1600,zu809ozq,12,10,p,p
20210628_1600,ji7tr1ce,12,20,q,p
20210628_1600,mcywebaj,12,9,p,p
20210628_1600,mffpnq55,12,22,p,q
20210628_1600,qhbw7gan,12,13,p,q
20210628_1600,gw7ncvdt,12,2,p,q
20210628_1600,djzpq5f3,12,25,p,q
20210628_1600,zu809ozq,13,6,p,q
20210628_1600,ji7tr1ce,13,17,q,q
20210628_1600,mcywebaj,13,13,p,p
20210628_1600,mffpnq55,13,5,p,q
20210628_1600,qhbw7gan,13,6,p,q
20210628_1600,gw7ncvdt,13,24,p,q
20210628_1600,djzpq5f3,13,12,p,q
20210628_1600,zu809ozq,14,21,q,q
20210628_1600,ji7tr1ce,14,24,p,p
20210628_1600,mcywebaj,14,5,p,q
20210628_1600,mffpnq55,14,12,q,q
20210628_1600,qhbw7gan,14,19,p,p
20210628_1600,gw7ncvdt,14,4,q,q
20210628_1600,djzpq5f3,14,4,p,q
20210628_1600,zu809ozq,15,9,p,q
20210628_1600,ji7tr1ce,15,4,q,q
20210628_1600,mcywebaj,15,18,p,p
20210628_1600,mffpnq55,15,14,q,q
20210628_1600,qhbw7gan,15,18,q,p
20210628_1600,gw7ncvdt,15,12,p,p
20210628_1600,djzpq5f3,15,2,q,q
20210628_1600,zu809ozq,16,24,q,p
20210628_1600,ji7tr1ce,16,1,p,q
20210628_1600,mcywebaj,16,3,p,q
20210628_1600,mffpnq55,16,1,p,q
20210628_1600,qhbw7gan,16,8,q,p
20210628_1600,gw7ncvdt,16,10,q,p
20210628_1600,djzpq5f3,16,9,p,q
20210628_1600,zu809ozq,17,1,q,q
20210628_1600,ji7tr1ce,17,22,p,q
20210628_1600,mcywebaj,17,24,q,p
20210628_1600,mffpnq55,17,11,p,q
20210628_1600,qhbw7gan,17,22,q,q
20210628_1600,gw7ncvdt,17,14,q,q
20210628_1600,djzpq5f3,17,10,p,q
20210628_1600,zu809ozq,18,3,q,p
20210628_1600,ji7tr1ce,18,5,p,q
20210628_1600,mcywebaj,18,16,q,p
20210628_1600,mffpnq55,18,19,q,p
20210628_1600,qhbw7gan,18,16,q,p
20210628_1600,gw7ncvdt,18,18,p,q
20210628_1600,djzpq5f3,18,17,p,q
20210628_1600,zu809ozq,19,13,q,q
20210628_1600,ji7tr1ce,19,7,q,q
20210628_1600,mcywebaj,19,23,p,q
20210628_1600,mffpnq55,19,15,p,q
20210628_1600,qhbw7gan,19,20,p,p
20210628_1600,gw7ncvdt,19,9,p,p
20210628_1600,djzpq5f3,19,21,q,q
20210628_1600,zu809ozq,20,22,q,q
20210628_1600,ji7tr1ce,20,9,p,p
20210628_1600,mcywebaj,20,17,q,p
20210628_1600,mffpnq55,20,16,p,q
20210628_1600,qhbw7gan,20,7,p,p
20210628_1600,gw7ncvdt,20,15,q,p
20210628_1600,djzpq5f3,20,16,p,p
20210628_1600,zu809ozq,21,12,q,q
20210628_1600,ji7tr1ce,21,3,p,q
20210628_1600,mcywebaj,21,10,p,q
20210628_1600,mffpnq55,21,21,q,q
20210628_1600,qhbw7gan,21,10,q,q
20210628_1600,gw7ncvdt,21,13,q,q
20210628_1600,djzpq5f3,21,11,q,q
20210628_1600,zu809ozq,22,16,q,q
20210628_1600,ji7tr1ce,22,11,p,q
20210628_1600,mcywebaj,22,6,q,q
20210628_1600,mffpnq55,22,9,q,q
20210628_1600,qhbw7gan,22,14,p,p
20210628_1600,gw7ncvdt,22,22,q,q
20210628_1600,djzpq5f3,22,13,q,q
20210628_1600,zu809ozq,23,19,p,p
20210628_1600,ji7tr1ce,23,21,q,p
20210628_1600,mcywebaj,23,14,p,q
20210628_1600,mffpnq55,23,4,q,q
20210628_1600,qhbw7gan,23,23,p,p
20210628_1600,gw7ncvdt,23,20,q,p
20210628_1600,djzpq5f3,23,23,p,q
20210628_1600,zu809ozq,24,15,q,p
20210628_1600,ji7tr1ce,24,15,q,q
20210628_1600,mcywebaj,24,4,q,p
20210628_1600,mffpnq55,24,3,p,q
20210628_1600,qhbw7gan,24,24,q,q
20210628_1600,gw7ncvdt,24,19,p,p
20210628_1600,djzpq5f3,24,15,p,q
20210628_1600,zu809ozq,25,8,p,p
20210628_1600,ji7tr1ce,25,8,p,q
20210628_1600,mcywebaj,25,25,p,p
20210628_1600,mffpnq55,25,13,q,q
20210628_1600,qhbw7gan,25,25,q,q
20210628_1600,gw7ncvdt,25,11,p,q
20210628_1600,djzpq5f3,25,1,q,q
20210630_1000,8hdqutwb,1,22,p,q
20210630_1000,3zofwepw,1,12,p,q
20210630_1000,72xz8gcz,1,11,q,q
20210630_1000,rzzn1i8f,1,16,q,q
20210630_1000,00g32yc1,1,17,q,q
20210630_1000,6u6fnn44,1,4,q,p
20210630_1000,qnd60n7v,1,12,q,q
20210630_1000,n0cakvnn,1,16,q,q
20210630_1000,eay5gfc3,1,13,p,p
20210630_1000,wtxzvb4e,1,2,p,q
20210630_1000,ua20fd02,1,4,p,q
20210630_1000,fqh1ix42,1,17,q,q
20210630_1000,8hdqutwb,2,20,p,p
20210630_1000,3zofwepw,2,9,q,q
20210630_1000,72xz8gcz,2,6,p,q
20210630_1000,rzzn1i8f,2,9,p,p
20210630_1000,00g32yc1,2,1,p,q
20210630_1000,6u6fnn44,2,10,p,q
20210630_1000,qnd60n7v,2,24,q,p
20210630_1000,n0cakvnn,2,21,q,q
20210630_1000,eay5gfc3,2,21,p,q
20210630_1000,wtxzvb4e,2,11,p,q
20210630_1000,ua20fd02,2,1,q,q
20210630_1000,fqh1ix42,2,25,p,p
20210630_1000,8hdqutwb,3,8,p,q
20210630_1000,3zofwepw,3,1,p,q
20210630_1000,72xz8gcz,3,5,q,p
20210630_1000,rzzn1i8f,3,23,p,q
20210630_1000,00g32yc1,3,8,p,p
20210630_1000,6u6fnn44,3,16,q,p
20210630_1000,qnd60n7v,3,13,q,q
20210630_1000,n0cakvnn,3,14,q,p
20210630_1000,eay5gfc3,3,25,q,p
20210630_1000,wtxzvb4e,3,7,q,p
20210630_1000,ua20fd02,3,15,p,q
20210630_1000,fqh1ix42,3,6,q,q
20210630_1000,8hdqutwb,4,18,p,q
20210630_1000,3zofwepw,4,14,q,p
20210630_1000,72xz8gcz,4,13,q,p
20210630_1000,rzzn1i8f,4,6,p,q
20210630_1000,00g32yc1,4,9,q,q
20210630_1000,6u6fnn44,4,17,q,p
20210630_1000,qnd60n7v,4,18,p,q
20210630_1000,n0cakvnn,4,7,p,p
20210630_1000,eay5gfc3,4,4,q,q
20210630_1000,wtxzvb4e,4,4,q,q
20210630_1000,ua20fd02,4,13,p,q
20210630_1000,fqh1ix42,4,19,q,p
20210630_1000,8hdqutwb,5,3,p,q
20210630_1000,3zofwepw,5,6,q,q
20210630_1000,72xz8gcz,5,7,p,p
20210630_1000,rzzn1i8f,5,19,p,p
20210630_1000,00g32yc1,5,2,q,q
20210630_1000,6u6fnn44,5,13,q,p
20210630_1000,qnd60n7v,5,25,q,p
20210630_1000,n0cakvnn,5,4,q,q
20210630_1000,eay5gfc3,5,8,p,q
20210630_1000,wtxzvb4e,5,8,q,p
20210630_1000,ua20fd02,5,19,q,p
20210630_1000,fqh1ix42,5,8,q,p
20210630_1000,8hdqutwb,6,14,p,q
20210630_1000,3zofwepw,6,15,p,q
20210630_1000,72xz8gcz,6,20,p,p
20210630_1000,rzzn1i8f,6,21,q,q
20210630_1000,00g32yc1,6,14,p,p
20210630_1000,6u6fnn44,6,9,q,q
20210630_1000,qnd60n7v,6,22,q,q
20210630_1000,n0cakvnn,6,12,q,q
20210630_1000,eay5gfc3,6,19,p,p
20210630_1000,wtxzvb4e,6,15,p,q
20210630_1000,ua20fd02,6,6,p,q
20210630_1000,fqh1ix42,6,9,p,q
20210630_1000,8hdqutwb,7,24,p,p
20210630_1000,3zofwepw,7,13,p,q
20210630_1000,72xz8gcz,7,1,q,p
20210630_1000,rzzn1i8f,7,1,p,p
20210630_1000,00g32yc1,7,20,q,p
20210630_1000,6u6fnn44,7,14,p,q
20210630_1000,qnd60n7v,7,6,p,p
20210630_1000,n0cakvnn,7,10,p,q
20210630_1000,eay5gfc3,7,11,q,q
20210630_1000,wtxzvb4e,7,18,p,q
20210630_1000,ua20fd02,7,10,p,p
20210630_1000,fqh1ix42,7,18,q,p
20210630_1000,8hdqutwb,8,19,q,p
20210630_1000,3zofwepw,8,20,q,p
20210630_1000,72xz8gcz,8,12,p,p
20210630_1000,rzzn1i8f,8,13,q,q
20210630_1000,00g32yc1,8,6,p,q
20210630_1000,6u6fnn44,8,24,p,p
20210630_1000,qnd60n7v,8,3,q,q
20210630_1000,n0cakvnn,8,24,q,p
20210630_1000,eay5gfc3,8,24,p,q
20210630_1000,wtxzvb4e,8,21,q,q
20210630_1000,ua20fd02,8,20,p,p
20210630_1000,fqh1ix42,8,14,p,q
20210630_1000,8hdqutwb,9,6,p,q
20210630_1000,3zofwepw,9,17,q,p
20210630_1000,72xz8gcz,9,9,p,p
20210630_1000,rzzn1i8f,9,2,p,q
20210630_1000,00g32yc1,9,15,p,p
20210630_1000,6u6fnn44,9,23,q,p
20210630_1000,qnd60n7v,9,21,q,q
20210630_1000,n0cakvnn,9,19,q,p
20210630_1000,eay5gfc3,9,6,q,q
20210630_1000,wtxzvb4e,9,10,q,q
20210630_1000,ua20fd02,9,9,p,q
20210630_1000,fqh1ix42,9,22,q,q
20210630_1000,8hdqutwb,10,5,p,q
20210630_1000,3zofwepw,10,24,p,q
20210630_1000,72xz8gcz,10,14,p,p
20210630_1000,rzzn1i8f,10,18,q,q
20210630_1000,00g32yc1,10,16,p,q
20210630_1000,6u6fnn44,10,1,p,q
20210630_1000,qnd60n7v,10,16,p,p
20210630_1000,n0cakvnn,10,9,p,q
20210630_1000,eay5gfc3,10,14,p,q
20210630_1000,wtxzvb4e,10,13,q,p
20210630_1000,ua20fd02,10,12,q,q
20210630_1000,fqh1ix42,10,24,p,p
20210630_1000,8hdqutwb,11,7,q,q
20210630_1000,3zofwepw,11,3,q,q
20210630_1000,72xz8gcz,11,17,p,p
20210630_1000,rzzn1i8f,11,4,q,q
20210630_1000,00g32yc1,11,5,p,q
20210630_1000,6u6fnn44,11,18,p,p
20210630_1000,qnd60n7v,11,1,q,p
20210630_1000,n0cakvnn,11,13,q,p
20210630_1000,eay5gfc3,11,22,p,q
20210630_1000,wtxzvb4e,11,23,q,q
20210630_1000,ua20fd02,11,7,q,p
20210630_1000,fqh1ix42,11,23,q,p
20210630_1000,8hdqutwb,12,25,p,p
20210630_1000,3zofwepw,12,2,p,q
20210630_1000,72xz8gcz,12,10,p,q
20210630_1000,rzzn1i8f,12,5,p,q
20210630_1000,00g32yc1,12,13,q,p
20210630_1000,6u6fnn44,12,12,p,q
20210630_1000,qnd60n7v,12,8,q,p
20210630_1000,n0cakvnn,12,15,p,q
20210630_1000,eay5gfc3,12,23,q,q
20210630_1000,wtxzvb4e,12,5,p,q
20210630_1000,ua20fd02,12,17,p,p
20210630_1000,fqh1ix42,12,2,p,q
20210630_1000,8hdqutwb,13,12,p,q
20210630_1000,3zofwepw,13,8,p,q
20210630_1000,72xz8gcz,13,4,q,p
20210630_1000,rzzn1i8f,13,20,q,p
20210630_1000,00g32yc1,13,12,q,q
20210630_1000,6u6fnn44,13,2,q,p
20210630_1000,qnd60n7v,13,9,p,q
20210630_1000,n0cakvnn,13,23,p,p
20210630_1000,eay5gfc3,13,16,p,p
20210630_1000,wtxzvb4e,13,14,p,q
20210630_1000,ua20fd02,13,14,p,q
20210630_1000,fqh1ix42,13,16,q,p
20210630_1000,8hdqutwb,14,4,p,q
20210630_1000,3zofwepw,14,11,p,q
20210630_1000,72xz8gcz,14,25,q,p
20210630_1000,rzzn1i8f,14,11,q,q
20210630_1000,00g32yc1,14,7,p,p
20210630_1000,6u6fnn44,14,7,p,p
20210630_1000,qnd60n7v,14,14,p,q
20210630_1000,n0cakvnn,14,1,q,q
20210630_1000,eay5gfc3,14,2,q,q
20210630_1000,wtxzvb4e,14,22,p,q
20210630_1000,ua20fd02,14,5,p,q
20210630_1000,fqh1ix42,14,21,q,q
20210630_1000,8hdqutwb,15,2,q,q
20210630_1000,3zofwepw,15,5,p,q
20210630_1000,72xz8gcz,15,3,q,q
20210630_1000,rzzn1i8f,15,22,q,q
20210630_1000,00g32yc1,15,10,p,q
20210630_1000,6u6fnn44,15,8,p,p
20210630_1000,qnd60n7v,15,10,p,q
20210630_1000,n0cakvnn,15,11,q,q
20210630_1000,eay5gfc3,15,7,p,q
20210630_1000,wtxzvb4e,15,16,q,q
20210630_1000,ua20fd02,15,16,p,p
20210630_1000,fqh1ix42,15,5,p,q
20210630_1000,8hdqutwb,16,9,p,q
20210630_1000,3zofwepw,16,7,p,q
20210630_1000,72xz8gcz,16,8,p,p
20210630_1000,rzzn1i8f,16,17,p,p
20210630_1000,00g32yc1,16,23,q,p
20210630_1000,6u6fnn44,16,19,q,p
20210630_1000,qnd60n7v,16,23,q,p
20210630_1000,n0cakvnn,16,5,q,p
20210630_1000,eay5gfc3,16,9,p,q
20210630_1000,wtxzvb4e,16,25,p,p
20210630_1000,ua20fd02,16,23,q,p
20210630_1000,fqh1ix42,16,3,p,q
20210630_1000,8hdqutwb,17,10,p,q
20210630_1000,3zofwepw,17,22,p,q
20210630_1000,72xz8gcz,17,21,p,q
20210630_1000,rzzn1i8f,17,8,q,q
20210630_1000,00g32yc1,17,21,q,q
20210630_1000,6u6fnn44,17,20,q,p
20210630_1000,qnd60n7v,17,7,p,q
20210630_1000,n0cakvnn,17,8,p,q
20210630_1000,eay5gfc3,17,3,p,q
20210630_1000,wtxzvb4e,17,6,q,q
20210630_1000,ua20fd02,17,24,p,p
20210630_1000,fqh1ix42,17,7,q,q
20210630_1000,8hdqutwb,18,17,p,q
20210630_1000,3zofwepw,18,21,q,p
20210630_1000,72xz8gcz,18,19,p,p
20210630_1000,rzzn1i8f,18,12,q,q
20210630_1000,00g32yc1,18,24,q,q
20210630_1000,6u6fnn44,18,6,q,p
20210630_1000,qnd60n7v,18,20,q,p
20210630_1000,n0cakvnn,18,22,p,p
20210630_1000,eay5gfc3,18,10,q,q
20210630_1000,wtxzvb4e,18,20,p,p
20210630_1000,ua20fd02,18,8,q,q
20210630_1000,fqh1ix42,18,1,p,q
20210630_1000,8hdqutwb,19,21,q,q
20210630_1000,3zofwepw,19,16,q,q
20210630_1000,72xz8gcz,19,22,p,q
20210630_1000,rzzn1i8f,19,25,p,q
20210630_1000,00g32yc1,19,19,p,p
20210630_1000,6u6fnn44,19,11,q,p
20210630_1000,qnd60n7v,19,5,q,q
20210630_1000,n0cakvnn,19,17,q,p
20210630_1000,eay5gfc3,19,5,p,q
20210630_1000,wtxzvb4e,19,1,p,q
20210630_1000,ua20fd02,19,2,q,q
20210630_1000,fqh1ix42,19,10,q,q
20210630_1000,8hdqutwb,20,16,p,q
20210630_1000,3zofwepw,20,23,q,q
20210630_1000,72xz8gcz,20,15,p,p
20210630_1000,rzzn1i8f,20,10,p,q
20210630_1000,00g32yc1,20,22,q,q
20210630_1000,6u6fnn44,20,15,p,q
20210630_1000,qnd60n7v,20,4,p,p
20210630_1000,n0cakvnn,20,18,p,q
20210630_1000,eay5gfc3,20,15,q,q
20210630_1000,wtxzvb4e,20,17,q,q
20210630_1000,ua20fd02,20,22,p,q
20210630_1000,fqh1ix42,20,15,p,p
20210630_1000,8hdqutwb,21,11,q,q
20210630_1000,3zofwepw,21,4,p,q
20210630_1000,72xz8gcz,21,16,q,p
20210630_1000,rzzn1i8f,21,3,q,q
20210630_1000,00g32yc1,21,25,q,q
20210630_1000,6u6fnn44,21,21,q,q
20210630_1000,qnd60n7v,21,2,p,q
20210630_1000,n0cakvnn,21,25,p,p
20210630_1000,eay5gfc3,21,1,p,q
20210630_1000,wtxzvb4e,21,12,q,q
20210630_1000,ua20fd02,21,11,p,q
20210630_1000,fqh1ix42,21,12,q,q
20210630_1000,8hdqutwb,22,13,q,q
20210630_1000,3zofwepw,22,18,p,q
20210630_1000,72xz8gcz,22,24,p,p
20210630_1000,rzzn1i8f,22,14,q,q
20210630_1000,00g32yc1,22,18,q,p
20210630_1000,6u6fnn44,22,5,q,q
20210630_1000,qnd60n7v,22,15,p,q
20210630_1000,n0cakvnn,22,3,p,q
20210630_1000,eay5gfc3,22,17,p,p
20210630_1000,wtxzvb4e,22,3,q,q
20210630_1000,ua20fd02,22,25,q,p
20210630_1000,fqh1ix42,22,13,p,q
20210630_1000,8hdqutwb,23,23,p,q
20210630_1000,3zofwepw,23,10,p,q
20210630_1000,72xz8gcz,23,18,p,p
20210630_1000,rzzn1i8f,23,15,p,q
20210630_1000,00g32yc1,23,11,p,q
20210630_1000,6u6fnn44,23,25,p,p
20210630_1000,qnd60n7v,23,17,p,p
20210630_1000,n0cakvnn,23,2,q,q
20210630_1000,eay5gfc3,23,20,q,p
20210630_1000,wtxzvb4e,23,9,p,q
20210630_1000,ua20fd02,23,18,q,q
20210630_1000,fqh1ix42,23,20,p,p
20210630_1000,8hdqutwb,24,15,p,q
20210630_1000,3zofwepw,24,19,p,p
20210630_1000,72xz8gcz,24,23,q,p
20210630_1000,rzzn1i8f,24,7,q,q
20210630_1000,00g32yc1,24,3,p,q
20210630_1000,6u6fnn44,24,22,p,q
20210630_1000,qnd60n7v,24,11,p,q
20210630_1000,n0cakvnn,24,6,p,q
20210630_1000,eay5gfc3,24,12,q,q
20210630_1000,wtxzvb4e,24,24,p,p
20210630_1000,ua20fd02,24,21,q,q
20210630_1000,fqh1ix42,24,4,p,q
20210630_1000,8hdqutwb,25,1,q,q
20210630_1000,3zofwepw,25,25,q,q
20210630_1000,72xz8gcz,25,2,q,p
20210630_1000,rzzn1i8f,25,24,q,q
20210630_1000,00g32yc1,25,4,q,p
20210630_1000,6u6fnn44,25,3,p,q
20210630_1000,qnd60n7v,25,19,q,p
20210630_1000,n0cakvnn,25,20,p,p
20210630_1000,eay5gfc3,25,18,p,q
20210630_1000,wtxzvb4e,25,19,q,q
20210630_1000,ua20fd02,25,3,p,q
20210630_1000,fqh1ix42,25,11,p,q
20210630_1130,j7dkgory,1,12,p,p
20210630_1130,i5jvwq5q,1,11,q,q
20210630_1130,5r9gjqy4,1,16,q,p
20210630_1130,e7ap89iz,1,17,q,q
20210630_1130,7femyonk,1,4,q,q
20210630_1130,co1khwiy,1,12,q,q
20210630_1130,su7mxpj7,1,16,q,q
20210630_1130,j7dkgory,2,9,q,q
20210630_1130,i5jvwq5q,2,6,p,q
20210630_1130,5r9gjqy4,2,9,p,q
20210630_1130,e7ap89iz,2,1,p,q
20210630_1130,7femyonk,2,10,p,q
20210630_1130,co1khwiy,2,24,q,p
20210630_1130,su7mxpj7,2,21,q,q
20210630_1130,j7dkgory,3,1,p,q
20210630_1130,i5jvwq5q,3,5,q,q
20210630_1130,5r9gjqy4,3,23,p,p
20210630_1130,e7ap89iz,3,8,p,q
20210630_1130,7femyonk,3,16,q,p
20210630_1130,co1khwiy,3,13,q,q
20210630_1130,su7mxpj7,3,14,q,q
20210630_1130,j7dkgory,4,14,q,p
20210630_1130,i5jvwq5q,4,13,q,q
20210630_1130,5r9gjqy4,4,6,p,q
20210630_1130,e7ap89iz,4,9,q,q
20210630_1130,7femyonk,4,17,q,q
20210630_1130,co1khwiy,4,18,p,q
20210630_1130,su7mxpj7,4,7,p,q
20210630_1130,j7dkgory,5,6,q,q
20210630_1130,i5jvwq5q,5,7,p,q
20210630_1130,5r9gjqy4,5,19,p,p
20210630_1130,e7ap89iz,5,2,q,q
20210630_1130,7femyonk,5,13,q,p
20210630_1130,co1khwiy,5,25,q,q
20210630_1130,su7mxpj7,5,4,q,q
20210630_1130,j7dkgory,6,15,p,p
20210630_1130,i5jvwq5q,6,20,p,p
20210630_1130,5r9gjqy4,6,21,q,q
20210630_1130,e7ap89iz,6,14,p,q
20210630_1130,7femyonk,6,9,q,p
20210630_1130,co1khwiy,6,22,q,q
20210630_1130,su7mxpj7,6,12,q,p
20210630_1130,j7dkgory,7,13,p,q
20210630_1130,i5jvwq5q,7,1,q,q
20210630_1130,5r9gjqy4,7,1,p,q
20210630_1130,e7ap89iz,7,20,q,p
20210630_1130,7femyonk,7,14,p,q
20210630_1130,co1khwiy,7,6,p,q
20210630_1130,su7mxpj7,7,10,p,q
20210630_1130,j7dkgory,8,20,q,p
20210630_1130,i5jvwq5q,8,12,p,q
20210630_1130,5r9gjqy4,8,13,q,q
20210630_1130,e7ap89iz,8,6,p,q
20210630_1130,7femyonk,8,24,p,p
20210630_1130,co1khwiy,8,3,q,q
20210630_1130,su7mxpj7,8,24,q,p
20210630_1130,j7dkgory,9,17,q,p
20210630_1130,i5jvwq5q,9,9,p,q
20210630_1130,5r9gjqy4,9,2,p,q
20210630_1130,e7ap89iz,9,15,p,q
20210630_1130,7femyonk,9,23,q,q
20210630_1130,co1khwiy,9,21,q,q
20210630_1130,su7mxpj7,9,19,q,p
20210630_1130,j7dkgory,10,24,p,q
20210630_1130,i5jvwq5q,10,14,p,q
20210630_1130,5r9gjqy4,10,18,q,q
20210630_1130,e7ap89iz,10,16,p,p
20210630_1130,7femyonk,10,1,p,p
20210630_1130,co1khwiy,10,16,p,q
20210630_1130,su7mxpj7,10,9,p,p
20210630_1130,j7dkgory,11,3,q,q
20210630_1130,i5jvwq5q,11,17,p,p
20210630_1130,5r9gjqy4,11,4,q,p
20210630_1130,e7ap89iz,11,5,p,q
20210630_1130,7femyonk,11,18,p,q
20210630_1130,co1khwiy,11,1,q,q
20210630_1130,su7mxpj7,11,13,q,p
20210630_1130,j7dkgory,12,2,p,q
20210630_1130,i5jvwq5q,12,10,p,q
20210630_1130,5r9gjqy4,12,5,p,q
20210630_1130,e7ap89iz,12,13,q,q
20210630_1130,7femyonk,12,12,p,q
20210630_1130,co1khwiy,12,8,q,q
20210630_1130,su7mxpj7,12,15,p,p
20210630_1130,j7dkgory,13,8,p,q
20210630_1130,i5jvwq5q,13,4,q,p
20210630_1130,5r9gjqy4,13,20,q,p
20210630_1130,e7ap89iz,13,12,q,q
20210630_1130,7femyonk,13,2,q,q
20210630_1130,co1khwiy,13,9,p,q
20210630_1130,su7mxpj7,13,23,p,q
20210630_1130,j7dkgory,14,11,p,q
20210630_1130,i5jvwq5q,14,25,q,q
20210630_1130,5r9gjqy4,14,11,q,p
20210630_1130,e7ap89iz,14,7,p,q
20210630_1130,7femyonk,14,7,p,p
20210630_1130,co1khwiy,14,14,p,q
20210630_1130,su7mxpj7,14,1,q,q
20210630_1130,j7dkgory,15,5,p,p
20210630_1130,i5jvwq5q,15,3,q,q
20210630_1130,5r9gjqy4,15,22,q,q
20210630_1130,e7ap89iz,15,10,p,q
20210630_1130,7femyonk,15,8,p,p
20210630_1130,co1khwiy,15,10,p,q
20210630_1130,su7mxpj7,15,11,q,q
20210630_1130,j7dkgory,16,7,p,q
20210630_1130,i5jvwq5q,16,8,p,q
20210630_1130,5r9gjqy4,16,17,p,p
20210630_1130,e7ap89iz,16,23,q,p
20210630_1130,7femyonk,16,19,q,p
20210630_1130,co1khwiy,16,23,q,q
20210630_1130,su7mxpj7,16,5,q,q
20210630_1130,j7dkgory,17,22,p,q
20210630_1130,i5jvwq5q,17,21,p,q
20210630_1130,5r9gjqy4,17,8,q,q
20210630_1130,e7ap89iz,17,21,q,q
20210630_1130,7femyonk,17,20,q,p
20210630_1130,co1khwiy,17,7,p,q
20210630_1130,su7mxpj7,17,8,p,q
20210630_1130,j7dkgory,18,21,q,q
20210630_1130,i5jvwq5q,18,19,p,p
20210630_1130,5r9gjqy4,18,12,q,q
20210630_1130,e7ap89iz,18,24,q,q
20210630_1130,7femyonk,18,6,q,q
20210630_1130,co1khwiy,18,20,q,p
20210630_1130,su7mxpj7,18,22,p,q
20210630_1130,j7dkgory,19,16,q,q
20210630_1130,i5jvwq5q,19,22,p,q
20210630_1130,5r9gjqy4,19,25,p,q
20210630_1130,e7ap89iz,19,19,p,p
20210630_1130,7femyonk,19,11,q,q
20210630_1130,co1khwiy,19,5,q,q
20210630_1130,su7mxpj7,19,17,q,q
20210630_1130,j7dkgory,20,23,q,p
20210630_1130,i5jvwq5q,20,15,p,q
20210630_1130,5r9gjqy4,20,10,p,q
20210630_1130,e7ap89iz,20,22,q,q
20210630_1130,7femyonk,20,15,p,p
20210630_1130,co1khwiy,20,4,p,q
20210630_1130,su7mxpj7,20,18,p,q
20210630_1130,j7dkgory,21,4,p,q
20210630_1130,i5jvwq5q,21,16,q,p
20210630_1130,5r9gjqy4,21,3,q,q
20210630_1130,e7ap89iz,21,25,q,q
20210630_1130,7femyonk,21,21,q,p
20210630_1130,co1khwiy,21,2,p,q
20210630_1130,su7mxpj7,21,25,p,q
20210630_1130,j7dkgory,22,18,p,p
20210630_1130,i5jvwq5q,22,24,p,p
20210630_1130,5r9gjqy4,22,14,q,q
20210630_1130,e7ap89iz,22,18,q,p
20210630_1130,7femyonk,22,5,q,p
20210630_1130,co1khwiy,22,15,p,q
20210630_1130,su7mxpj7,22,3,p,q
20210630_1130,j7dkgory,23,10,p,q
20210630_1130,i5jvwq5q,23,18,p,p
20210630_1130,5r9gjqy4,23,15,p,q
20210630_1130,e7ap89iz,23,11,p,q
20210630_1130,7femyonk,23,25,p,p
20210630_1130,co1khwiy,23,17,p,q
20210630_1130,su7mxpj7,23,2,q,q
20210630_1130,j7dkgory,24,19,p,p
20210630_1130,i5jvwq5q,24,23,q,q
20210630_1130,5r9gjqy4,24,7,q,q
20210630_1130,e7ap89iz,24,3,p,q
20210630_1130,7femyonk,24,22,p,q
20210630_1130,co1khwiy,24,11,p,q
20210630_1130,su7mxpj7,24,6,p,q
20210630_1130,j7dkgory,25,25,q,q
20210630_1130,i5jvwq5q,25,2,q,q
20210630_1130,5r9gjqy4,25,24,q,p
20210630_1130,e7ap89iz,25,4,q,p
20210630_1130,7femyonk,25,3,p,q
20210630_1130,co1khwiy,25,19,q,p
20210630_1130,su7mxpj7,25,20,p,p
20210630_1300,adz16f2y,1,17,p,p
20210630_1300,haf3qpec,1,6,q,p
20210630_1300,tg70dmp8,1,22,p,q
20210630_1300,3d9mvdzz,1,12,p,q
20210630_1300,ot5na0b9,1,11,q,q
20210630_1300,zxg75c8y,1,16,q,p
20210630_1300,xieg68g9,1,17,q,p
20210630_1300,adz16f2y,2,15,p,q
20210630_1300,haf3qpec,2,1,p,q
20210630_1300,tg70dmp8,2,20,p,p
20210630_1300,3d9mvdzz,2,9,q,p
20210630_1300,ot5na0b9,2,6,p,q
20210630_1300,zxg75c8y,2,9,p,p
20210630_1300,xieg68g9,2,1,p,p
20210630_1300,adz16f2y,3,11,p,q
20210630_1300,haf3qpec,3,16,p,q
20210630_1300,tg70dmp8,3,8,p,p
20210630_1300,3d9mvdzz,3,1,p,q
20210630_1300,ot5na0b9,3,5,q,q
20210630_1300,zxg75c8y,3,23,p,p
20210630_1300,xieg68g9,3,8,p,p
20210630_1300,adz16f2y,4,3,p,q
20210630_1300,haf3qpec,4,3,p,q
20210630_1300,tg70dmp8,4,18,p,p
20210630_1300,3d9mvdzz,4,14,q,q
20210630_1300,ot5na0b9,4,13,q,p
20210630_1300,zxg75c8y,4,6,p,q
20210630_1300,xieg68g9,4,9,q,p
20210630_1300,adz16f2y,5,4,q,q
20210630_1300,haf3qpec,5,17,q,p
20210630_1300,tg70dmp8,5,3,p,q
20210630_1300,3d9mvdzz,5,6,q,q
20210630_1300,ot5na0b9,5,7,p,p
20210630_1300,zxg75c8y,5,19,p,p
20210630_1300,xieg68g9,5,2,q,p
20210630_1300,adz16f2y,6,2,q,q
20210630_1300,haf3qpec,6,23,q,p
20210630_1300,tg70dmp8,6,14,p,p
20210630_1300,3d9mvdzz,6,15,p,q
20210630_1300,ot5na0b9,6,20,p,p
20210630_1300,zxg75c8y,6,21,q,q
20210630_1300,xieg68g9,6,14,p,q
20210630_1300,adz16f2y,7,5,q,q
20210630_1300,haf3qpec,7,25,q,q
20210630_1300,tg70dmp8,7,24,p,p
20210630_1300,3d9mvdzz,7,13,p,q
20210630_1300,ot5na0b9,7,1,q,p
20210630_1300,zxg75c8y,7,1,p,p
20210630_1300,xieg68g9,7,20,q,p
20210630_1300,adz16f2y,8,21,q,q
20210630_1300,haf3qpec,8,21,q,p
20210630_1300,tg70dmp8,8,19,q,p
20210630_1300,3d9mvdzz,8,20,q,p
20210630_1300,ot5na0b9,8,12,p,q
20210630_1300,zxg75c8y,8,13,q,p
20210630_1300,xieg68g9,8,6,p,q
20210630_1300,adz16f2y,9,12,q,q
20210630_1300,haf3qpec,9,8,q,p
20210630_1300,tg70dmp8,9,6,p,p
20210630_1300,3d9mvdzz,9,17,q,q
20210630_1300,ot5na0b9,9,9,p,q
20210630_1300,zxg75c8y,9,2,p,q
20210630_1300,xieg68g9,9,15,p,p
20210630_1300,adz16f2y,10,1,q,q
20210630_1300,haf3qpec,10,7,p,q
20210630_1300,tg70dmp8,10,5,p,p
20210630_1300,3d9mvdzz,10,24,p,q
20210630_1300,ot5na0b9,10,14,p,p
20210630_1300,zxg75c8y,10,18,q,p
20210630_1300,xieg68g9,10,16,p,q
20210630_1300,adz16f2y,11,9,q,q
20210630_1300,haf3qpec,11,5,q,q
20210630_1300,tg70dmp8,11,7,q,p
20210630_1300,3d9mvdzz,11,3,q,q
20210630_1300,ot5na0b9,11,17,p,q
20210630_1300,zxg75c8y,11,4,q,p
20210630_1300,xieg68g9,11,5,p,p
20210630_1300,adz16f2y,12,13,p,p
20210630_1300,haf3qpec,12,2,p,q
20210630_1300,tg70dmp8,12,25,p,p
20210630_1300,3d9mvdzz,12,2,p,q
20210630_1300,ot5na0b9,12,10,p,q
20210630_1300,zxg75c8y,12,5,p,p
20210630_1300,xieg68g9,12,13,q,q
20210630_1300,adz16f2y,13,6,p,q
20210630_1300,haf3qpec,13,24,p,p
20210630_1300,tg70dmp8,13,12,p,q
20210630_1300,3d9mvdzz,13,8,p,q
20210630_1300,ot5na0b9,13,4,q,p
20210630_1300,zxg75c8y,13,20,q,q
20210630_1300,xieg68g9,13,12,q,q
20210630_1300,adz16f2y,14,19,p,p
20210630_1300,haf3qpec,14,4,q,p
20210630_1300,tg70dmp8,14,4,p,q
20210630_1300,3d9mvdzz,14,11,p,q
20210630_1300,ot5na0b9,14,25,q,q
20210630_1300,zxg75c8y,14,11,q,q
20210630_1300,xieg68g9,14,7,p,q
20210630_1300,adz16f2y,15,18,q,p
20210630_1300,haf3qpec,15,12,p,p
20210630_1300,tg70dmp8,15,2,q,q
20210630_1300,3d9mvdzz,15,5,p,q
20210630_1300,ot5na0b9,15,3,q,q
20210630_1300,zxg75c8y,15,22,q,q
20210630_1300,xieg68g9,15,10,p,q
20210630_1300,adz16f2y,16,8,q,q
20210630_1300,haf3qpec,16,10,q,p
20210630_1300,tg70dmp8,16,9,p,p
20210630_1300,3d9mvdzz,16,7,p,q
20210630_1300,ot5na0b9,16,8,p,p
20210630_1300,zxg75c8y,16,17,p,p
20210630_1300,xieg68g9,16,23,q,p
20210630_1300,adz16f2y,17,22,q,q
20210630_1300,haf3qpec,17,14,q,p
20210630_1300,tg70dmp8,17,10,p,q
20210630_1300,3d9mvdzz,17,22,p,q
20210630_1300,ot5na0b9,17,21,p,q
20210630_1300,zxg75c8y,17,8,q,q
20210630_1300,xieg68g9,17,21,q,q
20210630_1300,adz16f2y,18,16,q,p
20210630_1300,haf3qpec,18,18,p,p
20210630_1300,tg70dmp8,18,17,p,p
20210630_1300,3d9mvdzz,18,21,q,q
20210630_1300,ot5na0b9,18,19,p,p
20210630_1300,zxg75c8y,18,12,q,p
20210630_1300,xieg68g9,18,24,q,p
20210630_1300,adz16f2y,19,20,p,p
20210630_1300,haf3qpec,19,9,p,q
20210630_1300,tg70dmp8,19,21,q,q
20210630_1300,3d9mvdzz,19,16,q,q
20210630_1300,ot5na0b9,19,22,p,q
20210630_1300,zxg75c8y,19,25,p,p
20210630_1300,xieg68g9,19,19,p,p
20210630_1300,adz16f2y,20,7,p,q
20210630_1300,haf3qpec,20,15,q,p
20210630_1300,tg70dmp8,20,16,p,q
20210630_1300,3d9mvdzz,20,23,q,q
20210630_1300,ot5na0b9,20,15,p,p
20210630_1300,zxg75c8y,20,10,p,q
20210630_1300,xieg68g9,20,22,q,q
20210630_1300,adz16f2y,21,10,q,q
20210630_1300,haf3qpec,21,13,q,p
20210630_1300,tg70dmp8,21,11,q,q
20210630_1300,3d9mvdzz,21,4,p,q
20210630_1300,ot5na0b9,21,16,q,q
20210630_1300,zxg75c8y,21,3,q,q
20210630_1300,xieg68g9,21,25,q,p
20210630_1300,adz16f2y,22,14,p,q
20210630_1300,haf3qpec,22,22,q,q
20210630_1300,tg70dmp8,22,13,q,q
20210630_1300,3d9mvdzz,22,18,p,q
20210630_1300,ot5na0b9,22,24,p,q
20210630_1300,zxg75c8y,22,14,q,p
20210630_1300,xieg68g9,22,18,q,q
20210630_1300,adz16f2y,23,23,p,q
20210630_1300,haf3qpec,23,20,q,p
20210630_1300,tg70dmp8,23,23,p,q
20210630_1300,3d9mvdzz,23,10,p,q
20210630_1300,ot5na0b9,23,18,p,q
20210630_1300,zxg75c8y,23,15,p,q
20210630_1300,xieg68g9,23,11,p,p
20210630_1300,adz16f2y,24,24,q,p
20210630_1300,haf3qpec,24,19,p,p
20210630_1300,tg70dmp8,24,15,p,q
20210630_1300,3d9mvdzz,24,19,p,p
20210630_1300,ot5na0b9,24,23,q,q
20210630_1300,zxg75c8y,24,7,q,p
20210630_1300,xieg68g9,24,3,p,q
20210630_1300,adz16f2y,25,25,q,q
20210630_1300,haf3qpec,25,11,p,q
20210630_1300,tg70dmp8,25,1,q,p
20210630_1300,3d9mvdzz,25,25,q,q
20210630_1300,ot5na0b9,25,2,q,q
20210630_1300,zxg75c8y,25,24,q,p
20210630_1300,xieg68g9,25,4,q,q
20210630_1430,b0370bjl,1,22,p,q
20210630_1430,sjgtn9qk,1,12,p,q
20210630_1430,fxky1ye6,1,11,q,q
20210630_1430,hokl19im,1,16,q,p
20210630_1430,aqcsvorl,1,17,q,q
20210630_1430,zi6i2c9u,1,4,q,p
20210630_1430,b0370bjl,2,20,p,p
20210630_1430,sjgtn9qk,2,9,q,q
20210630_1430,fxky1ye6,2,6,p,q
20210630_1430,hokl19im,2,9,p,q
20210630_1430,aqcsvorl,2,1,p,p
20210630_1430,zi6i2c9u,2,10,p,q
20210630_1430,b0370bjl,3,8,p,p
20210630_1430,sjgtn9qk,3,1,p,q
20210630_1430,fxky1ye6,3,5,q,p
20210630_1430,hokl19im,3,23,p,q
20210630_1430,aqcsvorl,3,8,p,q
20210630_1430,zi6i2c9u,3,16,q,q
20210630_1430,b0370bjl,4,18,p,p
20210630_1430,sjgtn9qk,4,14,q,q
20210630_1430,fxky1ye6,4,13,q,q
20210630_1430,hokl19im,4,6,p,q
20210630_1430,aqcsvorl,4,9,q,p
20210630_1430,zi6i2c9u,4,17,q,q
20210630_1430,b0370bjl,5,3,p,p
20210630_1430,sjgtn9qk,5,6,q,q
20210630_1430,fxky1ye6,5,7,p,p
20210630_1430,hokl19im,5,19,p,q
20210630_1430,aqcsvorl,5,2,q,p
20210630_1430,zi6i2c9u,5,13,q,q
20210630_1430,b0370bjl,6,14,p,p
20210630_1430,sjgtn9qk,6,15,p,p
20210630_1430,fxky1ye6,6,20,p,p
20210630_1430,hokl19im,6,21,q,q
20210630_1430,aqcsvorl,6,14,p,q
20210630_1430,zi6i2c9u,6,9,q,q
20210630_1430,b0370bjl,7,24,p,p
20210630_1430,sjgtn9qk,7,13,p,q
20210630_1430,fxky1ye6,7,1,q,q
20210630_1430,hokl19im,7,1,p,p
20210630_1430,aqcsvorl,7,20,q,p
20210630_1430,zi6i2c9u,7,14,p,p
20210630_1430,b0370bjl,8,19,q,p
20210630_1430,sjgtn9qk,8,20,q,p
20210630_1430,fxky1ye6,8,12,p,p
20210630_1430,hokl19im,8,13,q,q
20210630_1430,aqcsvorl,8,6,p,q
20210630_1430,zi6i2c9u,8,24,p,p
20210630_1430,b0370bjl,9,6,p,q
20210630_1430,sjgtn9qk,9,17,q,q
20210630_1430,fxky1ye6,9,9,p,q
20210630_1430,hokl19im,9,2,p,q
20210630_1430,aqcsvorl,9,15,p,p
20210630_1430,zi6i2c9u,9,23,q,q
20210630_1430,b0370bjl,10,5,p,p
20210630_1430,sjgtn9qk,10,24,p,q
20210630_1430,fxky1ye6,10,14,p,p
20210630_1430,hokl19im,10,18,q,p
20210630_1430,aqcsvorl,10,16,p,p
20210630_1430,zi6i2c9u,10,1,p,q
20210630_1430,b0370bjl,11,7,q,p
20210630_1430,sjgtn9qk,11,3,q,q
20210630_1430,fxky1ye6,11,17,p,q
20210630_1430,hokl19im,11,4,q,q
20210630_1430,aqcsvorl,11,5,p,p
20210630_1430,zi6i2c9u,11,18,p,p
20210630_1430,b0370bjl,12,25,p,p
20210630_1430,sjgtn9qk,12,2,p,q
20210630_1430,fxky1ye6,12,10,p,q
20210630_1430,hokl19im,12,5,p,q
20210630_1430,aqcsvorl,12,13,q,p
20210630_1430,zi6i2c9u,12,12,p,q
20210630_1430,b0370bjl,13,12,p,q
20210630_1430,sjgtn9qk,13,8,p,q
20210630_1430,fxky1ye6,13,4,q,p
20210630_1430,hokl19im,13,20,q,q
20210630_1430,aqcsvorl,13,12,q,p
20210630_1430,zi6i2c9u,13,2,q,q
20210630_1430,b0370bjl,14,4,p,p
20210630_1430,sjgtn9qk,14,11,p,q
20210630_1430,fxky1ye6,14,25,q,p
20210630_1430,hokl19im,14,11,q,q
20210630_1430,aqcsvorl,14,7,p,p
20210630_1430,zi6i2c9u,14,7,p,q
20210630_1430,b0370bjl,15,2,q,q
20210630_1430,sjgtn9qk,15,5,p,q
20210630_1430,fxky1ye6,15,3,q,q
20210630_1430,hokl19im,15,22,q,q
20210630_1430,aqcsvorl,15,10,p,p
20210630_1430,zi6i2c9u,15,8,p,p
20210630_1430,b0370bjl,16,9,p,q
20210630_1430,sjgtn9qk,16,7,p,q
20210630_1430,fxky1ye6,16,8,p,q
20210630_1430,hokl19im,16,17,p,q
20210630_1430,aqcsvorl,16,23,q,p
20210630_1430,zi6i2c9u,16,19,q,p
20210630_1430,b0370bjl,17,10,p,q
20210630_1430,sjgtn9qk,17,22,p,q
20210630_1430,fxky1ye6,17,21,p,q
20210630_1430,hokl19im,17,8,q,p
20210630_1430,aqcsvorl,17,21,q,p
20210630_1430,zi6i2c9u,17,20,q,p
20210630_1430,b0370bjl,18,17,p,q
20210630_1430,sjgtn9qk,18,21,q,q
20210630_1430,fxky1ye6,18,19,p,p
20210630_1430,hokl19im,18,12,q,q
20210630_1430,aqcsvorl,18,24,q,p
20210630_1430,zi6i2c9u,18,6,q,q
20210630_1430,b0370bjl,19,21,q,q
20210630_1430,sjgtn9qk,19,16,q,q
20210630_1430,fxky1ye6,19,22,p,q
20210630_1430,hokl19im,19,25,p,p
20210630_1430,aqcsvorl,19,19,p,q
20210630_1430,zi6i2c9u,19,11,q,q
20210630_1430,b0370bjl,20,16,p,p
20210630_1430,sjgtn9qk,20,23,q,q
20210630_1430,fxky1ye6,20,15,p,p
20210630_1430,hokl19im,20,10,p,q
20210630_1430,aqcsvorl,20,22,q,q
20210630_1430,zi6i2c9u,20,15,p,p
20210630_1430,b0370bjl,21,11,q,q
20210630_1430,sjgtn9qk,21,4,p,q
20210630_1430,fxky1ye6,21,16,q,p
20210630_1430,hokl19im,21,3,q,q
20210630_1430,aqcsvorl,21,25,q,p
20210630_1430,zi6i2c9u,21,21,q,q
20210630_1430,b0370bjl,22,13,q,q
20210630_1430,sjgtn9qk,22,18,p,q
20210630_1430,fxky1ye6,22,24,p,p
20210630_1430,hokl19im,22,14,q,p
20210630_1430,aqcsvorl,22,18,q,q
20210630_1430,zi6i2c9u,22,5,q,p
20210630_1430,b0370bjl,23,23,p,p
20210630_1430,sjgtn9qk,23,10,p,q
20210630_1430,fxky1ye6,23,18,p,q
20210630_1430,hokl19im,23,15,p,p
20210630_1430,aqcsvorl,23,11,p,p
20210630_1430,zi6i2c9u,23,25,p,p
20210630_1430,b0370bjl,24,15,p,q
20210630_1430,sjgtn9qk,24,19,p,q
20210630_1430,fxky1ye6,24,23,q,q
20210630_1430,hokl19im,24,7,q,p
20210630_1430,aqcsvorl,24,3,p,q
20210630_1430,zi6i2c9u,24,22,p,q
20210630_1430,b0370bjl,25,1,q,q
20210630_1430,sjgtn9qk,25,25,q,q
20210630_1430,fxky1ye6,25,2,q,q
20210630_1430,hokl19im,25,24,q,p
20210630_1430,aqcsvorl,25,4,q,p
20210630_1430,zi6i2c9u,25,3,p,q
20210701_1000,n594ys0i,1,12,q,p
20210701_1000,hby5m5ik,1,16,q,p
20210701_1000,45o6pk7j,1,13,p,q
20210701_1000,wu86use2,1,2,p,p
20210701_1000,n594ys0i,2,24,q,p
20210701_1000,hby5m5ik,2,21,q,q
20210701_1000,45o6pk7j,2,21,p,q
20210701_1000,wu86use2,2,11,p,p
20210701_1000,n594ys0i,3,13,q,q
20210701_1000,hby5m5ik,3,14,q,p
20210701_1000,45o6pk7j,3,25,q,p
20210701_1000,wu86use2,3,7,q,p
20210701_1000,n594ys0i,4,18,p,q
20210701_1000,hby5m5ik,4,7,p,p
20210701_1000,45o6pk7j,4,4,q,q
20210701_1000,wu86use2,4,4,q,p
20210701_1000,n594ys0i,5,25,q,p
20210701_1000,hby5m5ik,5,4,q,q
20210701_1000,45o6pk7j,5,8,p,p
20210701_1000,wu86use2,5,8,q,q
20210701_1000,n594ys0i,6,22,q,q
20210701_1000,hby5m5ik,6,12,q,q
20210701_1000,45o6pk7j,6,19,p,p
20210701_1000,wu86use2,6,15,p,p
20210701_1000,n594ys0i,7,6,p,q
20210701_1000,hby5m5ik,7,10,p,q
20210701_1000,45o6pk7j,7,11,q,q
20210701_1000,wu86use2,7,18,p,p
20210701_1000,n594ys0i,8,3,q,q
20210701_1000,hby5m5ik,8,24,q,p
20210701_1000,45o6pk7j,8,24,p,q
20210701_1000,wu86use2,8,21,q,q
20210701_1000,n594ys0i,9,21,q,q
20210701_1000,hby5m5ik,9,19,q,q
20210701_1000,45o6pk7j,9,6,q,q
20210701_1000,wu86use2,9,10,q,q
20210701_1000,n594ys0i,10,16,p,p
20210701_1000,hby5m5ik,10,9,p,q
20210701_1000,45o6pk7j,10,14,p,q
20210701_1000,wu86use2,10,13,q,q
20210701_1000,n594ys0i,11,1,q,q
20210701_1000,hby5m5ik,11,13,q,p
20210701_1000,45o6pk7j,11,22,p,q
20210701_1000,wu86use2,11,23,q,p
20210701_1000,n594ys0i,12,8,q,p
20210701_1000,hby5m5ik,12,15,p,p
20210701_1000,45o6pk7j,12,23,q,q
20210701_1000,wu86use2,12,5,p,q
20210701_1000,n594ys0i,13,9,p,q
20210701_1000,hby5m5ik,13,23,p,q
20210701_1000,45o6pk7j,13,16,p,q
20210701_1000,wu86use2,13,14,p,q
20210701_1000,n594ys0i,14,14,p,p
20210701_1000,hby5m5ik,14,1,q,q
20210701_1000,45o6pk7j,14,2,q,q
20210701_1000,wu86use2,14,22,p,q
20210701_1000,n594ys0i,15,10,p,q
20210701_1000,hby5m5ik,15,11,q,p
20210701_1000,45o6pk7j,15,7,p,q
20210701_1000,wu86use2,15,16,q,q
20210701_1000,n594ys0i,16,23,q,p
20210701_1000,hby5m5ik,16,5,q,q
20210701_1000,45o6pk7j,16,9,p,q
20210701_1000,wu86use2,16,25,p,q
20210701_1000,n594ys0i,17,7,p,p
20210701_1000,hby5m5ik,17,8,p,q
20210701_1000,45o6pk7j,17,3,p,q
20210701_1000,wu86use2,17,6,q,p
20210701_1000,n594ys0i,18,20,q,p
20210701_1000,hby5m5ik,18,22,p,p
20210701_1000,45o6pk7j,18,10,q,q
20210701_1000,wu86use2,18,20,p,p
20210701_1000,n594ys0i,19,5,q,q
20210701_1000,hby5m5ik,19,17,q,q
20210701_1000,45o6pk7j,19,5,p,p
20210701_1000,wu86use2,19,1,p,q
20210701_1000,n594ys0i,20,4,p,q
20210701_1000,hby5m5ik,20,18,p,p
20210701_1000,45o6pk7j,20,15,q,q
20210701_1000,wu86use2,20,17,q,p
20210701_1000,n594ys0i,21,2,p,q
20210701_1000,hby5m5ik,21,25,p,q
20210701_1000,45o6pk7j,21,1,p,q
20210701_1000,wu86use2,21,12,q,q
20210701_1000,n594ys0i,22,15,p,p
20210701_1000,hby5m5ik,22,3,p,q
20210701_1000,45o6pk7j,22,17,p,q
20210701_1000,wu86use2,22,3,q,q
20210701_1000,n594ys0i,23,17,p,p
20210701_1000,hby5m5ik,23,2,q,p
20210701_1000,45o6pk7j,23,20,q,p
20210701_1000,wu86use2,23,9,p,p
20210701_1000,n594ys0i,24,11,p,q
20210701_1000,hby5m5ik,24,6,p,q
20210701_1000,45o6pk7j,24,12,q,q
20210701_1000,wu86use2,24,24,p,q
20210701_1000,n594ys0i,25,19,q,p
20210701_1000,hby5m5ik,25,20,p,q
20210701_1000,45o6pk7j,25,18,p,q
20210701_1000,wu86use2,25,19,q,p
20210701_1130,gg29ns20,1,4,q,q
20210701_1130,2mlym5h3,1,12,q,q
20210701_1130,a0g4ni40,1,16,q,p
20210701_1130,tpa9df6u,1,13,p,q
20210701_1130,gg29ns20,2,10,p,q
20210701_1130,2mlym5h3,2,24,q,q
20210701_1130,a0g4ni40,2,21,q,q
20210701_1130,tpa9df6u,2,21,p,q
20210701_1130,gg29ns20,3,16,q,p
20210701_1130,2mlym5h3,3,13,q,q
20210701_1130,a0g4ni40,3,14,q,p
20210701_1130,tpa9df6u,3,25,q,p
20210701_1130,gg29ns20,4,17,q,p
20210701_1130,2mlym5h3,4,18,p,q
20210701_1130,a0g4ni40,4,7,p,q
20210701_1130,tpa9df6u,4,4,q,q
20210701_1130,gg29ns20,5,13,q,q
20210701_1130,2mlym5h3,5,25,q,q
20210701_1130,a0g4ni40,5,4,q,p
20210701_1130,tpa9df6u,5,8,p,p
20210701_1130,gg29ns20,6,9,q,q
20210701_1130,2mlym5h3,6,22,q,q
20210701_1130,a0g4ni40,6,12,q,q
20210701_1130,tpa9df6u,6,19,p,p
20210701_1130,gg29ns20,7,14,p,q
20210701_1130,2mlym5h3,7,6,p,q
20210701_1130,a0g4ni40,7,10,p,q
20210701_1130,tpa9df6u,7,11,q,p
20210701_1130,gg29ns20,8,24,p,p
20210701_1130,2mlym5h3,8,3,q,q
20210701_1130,a0g4ni40,8,24,q,p
20210701_1130,tpa9df6u,8,24,p,p
20210701_1130,gg29ns20,9,23,q,q
20210701_1130,2mlym5h3,9,21,q,q
20210701_1130,a0g4ni40,9,19,q,p
20210701_1130,tpa9df6u,9,6,q,p
20210701_1130,gg29ns20,10,1,p,p
20210701_1130,2mlym5h3,10,16,p,q
20210701_1130,a0g4ni40,10,9,p,p
20210701_1130,tpa9df6u,10,14,p,p
20210701_1130,gg29ns20,11,18,p,q
20210701_1130,2mlym5h3,11,1,q,q
20210701_1130,a0g4ni40,11,13,q,q
20210701_1130,tpa9df6u,11,22,p,q
20210701_1130,gg29ns20,12,12,p,q
20210701_1130,2mlym5h3,12,8,q,q
20210701_1130,a0g4ni40,12,15,p,p
20210701_1130,tpa9df6u,12,23,q,p
20210701_1130,gg29ns20,13,2,q,q
20210701_1130,2mlym5h3,13,9,p,q
20210701_1130,a0g4ni40,13,23,p,p
20210701_1130,tpa9df6u,13,16,p,q
20210701_1130,gg29ns20,14,7,p,q
20210701_1130,2mlym5h3,14,14,p,q
20210701_1130,a0g4ni40,14,1,q,p
20210701_1130,tpa9df6u,14,2,q,q
20210701_1130,gg29ns20,15,8,p,q
20210701_1130,2mlym5h3,15,10,p,q
20210701_1130,a0g4ni40,15,11,q,q
20210701_1130,tpa9df6u,15,7,p,p
20210701_1130,gg29ns20,16,19,q,p
20210701_1130,2mlym5h3,16,23,q,q
20210701_1130,a0g4ni40,16,5,q,p
20210701_1130,tpa9df6u,16,9,p,q
20210701_1130,gg29ns20,17,20,q,p
20210701_1130,2mlym5h3,17,7,p,q
20210701_1130,a0g4ni40,17,8,p,q
20210701_1130,tpa9df6u,17,3,p,p
20210701_1130,gg29ns20,18,6,q,q
20210701_1130,2mlym5h3,18,20,q,p
20210701_1130,a0g4ni40,18,22,p,q
20210701_1130,tpa9df6u,18,10,q,p
20210701_1130,gg29ns20,19,11,q,q
20210701_1130,2mlym5h3,19,5,q,q
20210701_1130,a0g4ni40,19,17,q,p
20210701_1130,tpa9df6u,19,5,p,q
20210701_1130,gg29ns20,20,15,p,q
20210701_1130,2mlym5h3,20,4,p,q
20210701_1130,a0g4ni40,20,18,p,p
20210701_1130,tpa9df6u,20,15,q,p
20210701_1130,gg29ns20,21,21,q,q
20210701_1130,2mlym5h3,21,2,p,q
20210701_1130,a0g4ni40,21,25,p,p
20210701_1130,tpa9df6u,21,1,p,q
20210701_1130,gg29ns20,22,5,q,q
20210701_1130,2mlym5h3,22,15,p,q
20210701_1130,a0g4ni40,22,3,p,q
20210701_1130,tpa9df6u,22,17,p,p
20210701_1130,gg29ns20,23,25,p,p
20210701_1130,2mlym5h3,23,17,p,q
20210701_1130,a0g4ni40,23,2,q,q
20210701_1130,tpa9df6u,23,20,q,p
20210701_1130,gg29ns20,24,22,p,q
20210701_1130,2mlym5h3,24,11,p,q
20210701_1130,a0g4ni40,24,6,p,q
20210701_1130,tpa9df6u,24,12,q,p
20210701_1130,gg29ns20,25,3,p,q
20210701_1130,2mlym5h3,25,19,q,p
20210701_1130,a0g4ni40,25,20,p,p
20210701_1130,tpa9df6u,25,18,p,p
20210702_1300,uel5pire,1,2,p,q
20210702_1300,aiy9pkbx,1,4,p,p
20210702_1300,td1cwjdp,1,17,q,p
20210702_1300,xt7meys4,1,5,p,q
20210702_1300,d3v22y45,1,16,q,p
20210702_1300,0uviu3c8,1,1,p,q
20210702_1300,2nb9zfb7,1,7,p,q
20210702_1300,q0ffsac5,1,1,p,p
20210702_1300,9a30ip35,1,1,p,p
20210702_1300,6vlteoij,1,15,q,p
20210702_1300,lfrzjoj3,1,20,q,p
20210702_1300,21otsptc,1,2,p,q
20210702_1300,uel5pire,2,11,p,q
20210702_1300,aiy9pkbx,2,1,q,p
20210702_1300,td1cwjdp,2,25,p,p
20210702_1300,xt7meys4,2,14,q,p
20210702_1300,d3v22y45,2,23,q,p
20210702_1300,0uviu3c8,2,16,p,q
20210702_1300,2nb9zfb7,2,2,p,q
20210702_1300,q0ffsac5,2,16,q,p
20210702_1300,9a30ip35,2,4,q,p
20210702_1300,6vlteoij,2,20,p,p
20210702_1300,lfrzjoj3,2,10,p,p
20210702_1300,21otsptc,2,14,q,p
20210702_1300,uel5pire,3,7,q,q
20210702_1300,aiy9pkbx,3,15,p,p
20210702_1300,td1cwjdp,3,6,q,q
20210702_1300,xt7meys4,3,20,q,p
20210702_1300,d3v22y45,3,15,q,q
20210702_1300,0uviu3c8,3,13,q,q
20210702_1300,2nb9zfb7,3,24,q,q
20210702_1300,q0ffsac5,3,9,q,p
20210702_1300,9a30ip35,3,3,q,p
20210702_1300,6vlteoij,3,13,p,q
20210702_1300,lfrzjoj3,3,23,p,q
20210702_1300,21otsptc,3,20,p,p
20210702_1300,uel5pire,4,4,q,q
20210702_1300,aiy9pkbx,4,13,p,p
20210702_1300,td1cwjdp,4,19,q,p
20210702_1300,xt7meys4,4,12,q,p
20210702_1300,d3v22y45,4,25,q,p
20210702_1300,0uviu3c8,4,11,p,q
20210702_1300,2nb9zfb7,4,25,q,q
20210702_1300,q0ffsac5,4,13,p,q
20210702_1300,9a30ip35,4,18,q,p
20210702_1300,6vlteoij,4,21,q,q
20210702_1300,lfrzjoj3,4,25,q,p
20210702_1300,21otsptc,4,6,p,q
20210702_1300,uel5pire,5,8,q,p
20210702_1300,aiy9pkbx,5,19,q,p
20210702_1300,td1cwjdp,5,8,q,q
20210702_1300,xt7meys4,5,3,q,p
20210702_1300,d3v22y45,5,5,q,q
20210702_1300,0uviu3c8,5,17,q,p
20210702_1300,2nb9zfb7,5,12,q,q
20210702_1300,q0ffsac5,5,23,q,p
20210702_1300,9a30ip35,5,16,p,p
20210702_1300,6vlteoij,5,9,p,q
20210702_1300,lfrzjoj3,5,17,p,q
20210702_1300,21otsptc,5,21,q,p
20210702_1300,uel5pire,6,15,p,q
20210702_1300,aiy9pkbx,6,6,p,p
20210702_1300,td1cwjdp,6,9,p,q
20210702_1300,xt7meys4,6,13,p,p
20210702_1300,d3v22y45,6,14,q,q
20210702_1300,0uviu3c8,6,4,p,q
20210702_1300,2nb9zfb7,6,8,q,q
20210702_1300,q0ffsac5,6,8,p,q
20210702_1300,9a30ip35,6,8,q,p
20210702_1300,6vlteoij,6,7,p,p
20210702_1300,lfrzjoj3,6,6,q,q
20210702_1300,21otsptc,6,7,q,q
20210702_1300,uel5pire,7,18,p,q
20210702_1300,aiy9pkbx,7,10,p,p
20210702_1300,td1cwjdp,7,18,q,p
20210702_1300,xt7meys4,7,18,p,q
20210702_1300,d3v22y45,7,10,q,q
20210702_1300,0uviu3c8,7,15,q,p
20210702_1300,2nb9zfb7,7,20,p,p
20210702_1300,q0ffsac5,7,19,q,p
20210702_1300,9a30ip35,7,25,p,p
20210702_1300,6vlteoij,7,25,p,p
20210702_1300,lfrzjoj3,7,18,p,q
20210702_1300,21otsptc,7,15,q,p
20210702_1300,uel5pire,8,21,q,q
20210702_1300,aiy9pkbx,8,20,p,p
20210702_1300,td1cwjdp,8,14,p,q
20210702_1300,xt7meys4,8,21,p,p
20210702_1300,d3v22y45,8,1,q,q
20210702_1300,0uviu3c8,8,21,p,q
20210702_1300,2nb9zfb7,8,13,p,q
20210702_1300,q0ffsac5,8,14,q,q
20210702_1300,9a30ip35,8,14,p,p
20210702_1300,6vlteoij,8,12,p,q
20210702_1300,lfrzjoj3,8,19,p,p
20210702_1300,21otsptc,8,17,p,p
20210702_1300,uel5pire,9,10,q,q
20210702_1300,aiy9pkbx,9,9,p,p
20210702_1300,td1cwjdp,9,22,q,q
20210702_1300,xt7meys4,9,22,p,q
20210702_1300,d3v22y45,9,20,p,p
20210702_1300,0uviu3c8,9,12,p,p
20210702_1300,2nb9zfb7,9,11,q,q
20210702_1300,q0ffsac5,9,15,p,p
20210702_1300,9a30ip35,9,17,q,p
20210702_1300,6vlteoij,9,23,p,p
20210702_1300,lfrzjoj3,9,21,p,q
20210702_1300,21otsptc,9,13,q,p
20210702_1300,uel5pire,10,13,q,q
20210702_1300,aiy9pkbx,10,12,q,q
20210702_1300,td1cwjdp,10,24,p,p
20210702_1300,xt7meys4,10,8,q,p
20210702_1300,d3v22y45,10,12,p,q
20210702_1300,0uviu3c8,10,18,q,q
20210702_1300,2nb9zfb7,10,16,p,q
20210702_1300,q0ffsac5,10,11,p,q
20210702_1300,9a30ip35,10,2,p,p
20210702_1300,6vlteoij,10,24,p,p
20210702_1300,lfrzjoj3,10,14,q,p
20210702_1300,21otsptc,10,3,q,q
20210702_1300,uel5pire,11,23,q,p
20210702_1300,aiy9pkbx,11,7,q,q
20210702_1300,td1cwjdp,11,23,q,p
20210702_1300,xt7meys4,11,7,q,q
20210702_1300,d3v22y45,11,13,p,q
20210702_1300,0uviu3c8,11,7,q,q
20210702_1300,2nb9zfb7,11,15,q,q
20210702_1300,q0ffsac5,11,22,p,q
20210702_1300,9a30ip35,11,9,q,p
20210702_1300,6vlteoij,11,1,q,p
20210702_1300,lfrzjoj3,11,15,p,q
20210702_1300,21otsptc,11,8,q,p
20210702_1300,uel5pire,12,5,p,q
20210702_1300,aiy9pkbx,12,17,p,p
20210702_1300,td1cwjdp,12,2,p,q
20210702_1300,xt7meys4,12,1,q,p
20210702_1300,d3v22y45,12,6,q,q
20210702_1300,0uviu3c8,12,23,p,q
20210702_1300,2nb9zfb7,12,6,q,q
20210702_1300,q0ffsac5,12,21,q,q
20210702_1300,9a30ip35,12,22,q,q
20210702_1300,6vlteoij,12,19,q,p
20210702_1300,lfrzjoj3,12,5,p,q
20210702_1300,21otsptc,12,11,p,q
20210702_1300,uel5pire,13,14,p,p
20210702_1300,aiy9pkbx,13,14,p,p
20210702_1300,td1cwjdp,13,16,q,p
20210702_1300,xt7meys4,13,23,p,q
20210702_1300,d3v22y45,13,17,p,p
20210702_1300,0uviu3c8,13,2,p,q
20210702_1300,2nb9zfb7,13,3,p,q
20210702_1300,q0ffsac5,13,12,q,p
20210702_1300,9a30ip35,13,15,p,p
20210702_1300,6vlteoij,13,2,p,q
20210702_1300,lfrzjoj3,13,13,p,q
20210702_1300,21otsptc,13,16,p,p
20210702_1300,uel5pire,14,22,p,q
20210702_1300,aiy9pkbx,14,5,p,q
20210702_1300,td1cwjdp,14,21,q,q
20210702_1300,xt7meys4,14,25,p,q
20210702_1300,d3v22y45,14,7,q,q
20210702_1300,0uviu3c8,14,24,q,p
20210702_1300,2nb9zfb7,14,21,q,q
20210702_1300,q0ffsac5,14,18,q,q
20210702_1300,9a30ip35,14,19,p,p
20210702_1300,6vlteoij,14,11,q,q
20210702_1300,lfrzjoj3,14,7,p,q
20210702_1300,21otsptc,14,4,q,q
20210702_1300,uel5pire,15,16,q,p
20210702_1300,aiy9pkbx,15,16,p,p
20210702_1300,td1cwjdp,15,5,p,q
20210702_1300,xt7meys4,15,16,q,p
20210702_1300,d3v22y45,15,22,q,q
20210702_1300,0uviu3c8,15,3,p,q
20210702_1300,2nb9zfb7,15,5,p,q
20210702_1300,q0ffsac5,15,2,q,q
20210702_1300,9a30ip35,15,10,q,p
20210702_1300,6vlteoij,15,18,p,p
20210702_1300,lfrzjoj3,15,22,p,q
20210702_1300,21otsptc,15,1,q,p
20210702_1300,uel5pire,16,25,p,p
20210702_1300,aiy9pkbx,16,23,q,p
20210702_1300,td1cwjdp,16,3,p,q
20210702_1300,xt7meys4,16,17,p,p
20210702_1300,d3v22y45,16,21,q,p
20210702_1300,0uviu3c8,16,19,p,p
20210702_1300,2nb9zfb7,16,23,p,q
20210702_1300,q0ffsac5,16,24,p,p
20210702_1300,9a30ip35,16,11,p,p
20210702_1300,6vlteoij,16,17,q,p
20210702_1300,lfrzjoj3,16,2,q,q
20210702_1300,21otsptc,16,10,q,q
20210702_1300,uel5pire,17,6,q,q
20210702_1300,aiy9pkbx,17,24,p,p
20210702_1300,td1cwjdp,17,7,q,q
20210702_1300,xt7meys4,17,15,p,p
20210702_1300,d3v22y45,17,2,q,q
20210702_1300,0uviu3c8,17,14,q,q
20210702_1300,2nb9zfb7,17,10,p,q
20210702_1300,q0ffsac5,17,20,p,p
20210702_1300,9a30ip35,17,5,p,p
20210702_1300,6vlteoij,17,4,p,q
20210702_1300,lfrzjoj3,17,16,q,p
20210702_1300,21otsptc,17,18,q,q
20210702_1300,uel5pire,18,20,p,p
20210702_1300,aiy9pkbx,18,8,q,p
20210702_1300,td1cwjdp,18,1,p,q
20210702_1300,xt7meys4,18,6,p,p
20210702_1300,d3v22y45,18,19,p,p
20210702_1300,0uviu3c8,18,10,q,q
20210702_1300,2nb9zfb7,18,14,p,q
20210702_1300,q0ffsac5,18,6,p,q
20210702_1300,9a30ip35,18,6,p,p
20210702_1300,6vlteoij,18,10,p,q
20210702_1300,lfrzjoj3,18,11,p,q
20210702_1300,21otsptc,18,9,q,p
20210702_1300,uel5pire,19,1,p,q
20210702_1300,aiy9pkbx,19,2,q,p
20210702_1300,td1cwjdp,19,10,q,q
20210702_1300,xt7meys4,19,24,q,p
20210702_1300,d3v22y45,19,4,q,p
20210702_1300,0uviu3c8,19,9,p,p
20210702_1300,2nb9zfb7,19,17,p,q
20210702_1300,q0ffsac5,19,3,q,p
20210702_1300,9a30ip35,19,20,p,p
20210702_1300,6vlteoij,19,14,q,p
20210702_1300,lfrzjoj3,19,3,p,q
20210702_1300,21otsptc,19,24,p,p
20210702_1300,uel5pire,20,17,q,p
20210702_1300,aiy9pkbx,20,22,p,q
20210702_1300,td1cwjdp,20,15,p,q
20210702_1300,xt7meys4,20,2,p,q
20210702_1300,d3v22y45,20,18,q,q
20210702_1300,0uviu3c8,20,20,p,p
20210702_1300,2nb9zfb7,20,19,q,p
20210702_1300,q0ffsac5,20,5,p,p
20210702_1300,9a30ip35,20,23,p,p
20210702_1300,6vlteoij,20,6,p,q
20210702_1300,lfrzjoj3,20,4,q,p
20210702_1300,21otsptc,20,19,q,p
20210702_1300,uel5pire,21,12,q,q
20210702_1300,aiy9pkbx,21,11,p,p
20210702_1300,td1cwjdp,21,12,q,q
20210702_1300,xt7meys4,21,4,q,q
20210702_1300,d3v22y45,21,8,p,q
20210702_1300,0uviu3c8,21,6,q,q
20210702_1300,2nb9zfb7,21,9,q,q
20210702_1300,q0ffsac5,21,10,q,q
20210702_1300,9a30ip35,21,24,p,p
20210702_1300,6vlteoij,21,16,p,q
20210702_1300,lfrzjoj3,21,9,q,q
20210702_1300,21otsptc,21,22,q,q
20210702_1300,uel5pire,22,3,q,q
20210702_1300,aiy9pkbx,22,25,q,p
20210702_1300,td1cwjdp,22,13,p,q
20210702_1300,xt7meys4,22,10,q,p
20210702_1300,d3v22y45,22,9,p,q
20210702_1300,0uviu3c8,22,5,q,q
20210702_1300,2nb9zfb7,22,18,q,q
20210702_1300,q0ffsac5,22,7,q,q
20210702_1300,9a30ip35,22,12,q,q
20210702_1300,6vlteoij,22,3,p,q
20210702_1300,lfrzjoj3,22,8,p,p
20210702_1300,21otsptc,22,12,q,q
20210702_1300,uel5pire,23,9,p,p
20210702_1300,aiy9pkbx,23,18,q,q
20210702_1300,td1cwjdp,23,20,p,p
20210702_1300,xt7meys4,23,9,p,q
20210702_1300,d3v22y45,23,24,q,p
20210702_1300,0uviu3c8,23,22,q,q
20210702_1300,2nb9zfb7,23,4,q,q
20210702_1300,q0ffsac5,23,4,q,q
20210702_1300,9a30ip35,23,21,q,q
20210702_1300,6vlteoij,23,5,p,p
20210702_1300,lfrzjoj3,23,24,p,p
20210702_1300,21otsptc,23,5,q,q
20210702_1300,uel5pire,24,24,p,p
20210702_1300,aiy9pkbx,24,21,q,q
20210702_1300,td1cwjdp,24,4,p,p
20210702_1300,xt7meys4,24,19,p,p
20210702_1300,d3v22y45,24,3,q,q
20210702_1300,0uviu3c8,24,8,q,q
20210702_1300,2nb9zfb7,24,1,q,q
20210702_1300,q0ffsac5,24,17,q,q
20210702_1300,9a30ip35,24,13,p,p
20210702_1300,6vlteoij,24,22,p,q
20210702_1300,lfrzjoj3,24,12,q,q
20210702_1300,21otsptc,24,25,q,p
20210702_1300,uel5pire,25,19,q,p
20210702_1300,aiy9pkbx,25,3,p,q
20210702_1300,td1cwjdp,25,11,p,q
20210702_1300,xt7meys4,25,11,p,p
20210702_1300,d3v22y45,25,11,q,q
20210702_1300,0uviu3c8,25,25,p,q
20210702_1300,2nb9zfb7,25,22,q,q
20210702_1300,q0ffsac5,25,25,p,p
20210702_1300,9a30ip35,25,7,q,q
20210702_1300,6vlteoij,25,8,p,q
20210702_1300,lfrzjoj3,25,1,p,p
20210702_1300,21otsptc,25,23,p,p
20210702_1430,w884g810,1,4,p,p
20210702_1430,zmaoyq1i,1,17,q,p
20210702_1430,8t5zwjgh,1,5,p,p
20210702_1430,ocezwog3,1,16,q,p
20210702_1430,gad5ovep,1,1,p,q
20210702_1430,kbtjqe2e,1,7,p,q
20210702_1430,gq9fzq9w,1,1,p,p
20210702_1430,ot30actm,1,1,p,q
20210702_1430,6kwe5o6c,1,15,q,q
20210702_1430,atma1qcx,1,20,q,p
20210702_1430,w884g810,2,1,q,q
20210702_1430,zmaoyq1i,2,25,p,p
20210702_1430,8t5zwjgh,2,14,q,p
20210702_1430,ocezwog3,2,23,q,p
20210702_1430,gad5ovep,2,16,p,q
20210702_1430,kbtjqe2e,2,2,p,q
20210702_1430,gq9fzq9w,2,16,q,p
20210702_1430,ot30actm,2,4,q,q
20210702_1430,6kwe5o6c,2,20,p,p
20210702_1430,atma1qcx,2,10,p,q
20210702_1430,w884g810,3,15,p,q
20210702_1430,zmaoyq1i,3,6,q,q
20210702_1430,8t5zwjgh,3,20,q,p
20210702_1430,ocezwog3,3,15,q,p
20210702_1430,gad5ovep,3,13,q,q
20210702_1430,kbtjqe2e,3,24,q,p
20210702_1430,gq9fzq9w,3,9,q,q
20210702_1430,ot30actm,3,3,q,q
20210702_1430,6kwe5o6c,3,13,p,q
20210702_1430,atma1qcx,3,23,p,q
20210702_1430,w884g810,4,13,p,q
20210702_1430,zmaoyq1i,4,19,q,p
20210702_1430,8t5zwjgh,4,12,q,p
20210702_1430,ocezwog3,4,25,q,p
20210702_1430,gad5ovep,4,11,p,q
20210702_1430,kbtjqe2e,4,25,q,p
20210702_1430,gq9fzq9w,4,13,p,q
20210702_1430,ot30actm,4,18,q,q
20210702_1430,6kwe5o6c,4,21,q,q
20210702_1430,atma1qcx,4,25,q,q
20210702_1430,w884g810,5,19,q,p
20210702_1430,zmaoyq1i,5,8,q,q
20210702_1430,8t5zwjgh,5,3,q,p
20210702_1430,ocezwog3,5,5,q,p
20210702_1430,gad5ovep,5,17,q,q
20210702_1430,kbtjqe2e,5,12,q,p
20210702_1430,gq9fzq9w,5,23,q,q
20210702_1430,ot30actm,5,16,p,q
20210702_1430,6kwe5o6c,5,9,p,q
20210702_1430,atma1qcx,5,17,p,q
20210702_1430,w884g810,6,6,p,q
20210702_1430,zmaoyq1i,6,9,p,q
20210702_1430,8t5zwjgh,6,13,p,p
20210702_1430,ocezwog3,6,14,q,p
20210702_1430,gad5ovep,6,4,p,q
20210702_1430,kbtjqe2e,6,8,q,p
20210702_1430,gq9fzq9w,6,8,p,q
20210702_1430,ot30actm,6,8,q,q
20210702_1430,6kwe5o6c,6,7,p,q
20210702_1430,atma1qcx,6,6,q,q
20210702_1430,w884g810,7,10,p,p
20210702_1430,zmaoyq1i,7,18,q,p
20210702_1430,8t5zwjgh,7,18,p,p
20210702_1430,ocezwog3,7,10,q,p
20210702_1430,gad5ovep,7,15,q,q
20210702_1430,kbtjqe2e,7,20,p,p
20210702_1430,gq9fzq9w,7,19,q,p
20210702_1430,ot30actm,7,25,p,q
20210702_1430,6kwe5o6c,7,25,p,q
20210702_1430,atma1qcx,7,18,p,q
20210702_1430,w884g810,8,20,p,p
20210702_1430,zmaoyq1i,8,14,p,q
20210702_1430,8t5zwjgh,8,21,p,q
20210702_1430,ocezwog3,8,1,q,p
20210702_1430,gad5ovep,8,21,p,q
20210702_1430,kbtjqe2e,8,13,p,p
20210702_1430,gq9fzq9w,8,14,q,q
20210702_1430,ot30actm,8,14,p,q
20210702_1430,6kwe5o6c,8,12,p,q
20210702_1430,atma1qcx,8,19,p,p
20210702_1430,w884g810,9,9,p,q
20210702_1430,zmaoyq1i,9,22,q,q
20210702_1430,8t5zwjgh,9,22,p,q
20210702_1430,ocezwog3,9,20,p,p
20210702_1430,gad5ovep,9,12,p,q
20210702_1430,kbtjqe2e,9,11,q,p
20210702_1430,gq9fzq9w,9,15,p,p
20210702_1430,ot30actm,9,17,q,q
20210702_1430,6kwe5o6c,9,23,p,q
20210702_1430,atma1qcx,9,21,p,q
20210702_1430,w884g810,10,12,q,p
20210702_1430,zmaoyq1i,10,24,p,p
20210702_1430,8t5zwjgh,10,8,q,p
20210702_1430,ocezwog3,10,12,p,p
20210702_1430,gad5ovep,10,18,q,q
20210702_1430,kbtjqe2e,10,16,p,p
20210702_1430,gq9fzq9w,10,11,p,q
20210702_1430,ot30actm,10,2,p,q
20210702_1430,6kwe5o6c,10,24,p,q
20210702_1430,atma1qcx,10,14,q,q
20210702_1430,w884g810,11,7,q,q
20210702_1430,zmaoyq1i,11,23,q,p
20210702_1430,8t5zwjgh,11,7,q,p
20210702_1430,ocezwog3,11,13,p,p
20210702_1430,gad5ovep,11,7,q,q
20210702_1430,kbtjqe2e,11,15,q,p
20210702_1430,gq9fzq9w,11,22,p,q
20210702_1430,ot30actm,11,9,q,q
20210702_1430,6kwe5o6c,11,1,q,q
20210702_1430,atma1qcx,11,15,p,q
20210702_1430,w884g810,12,17,p,p
20210702_1430,zmaoyq1i,12,2,p,q
20210702_1430,8t5zwjgh,12,1,q,q
20210702_1430,ocezwog3,12,6,q,p
20210702_1430,gad5ovep,12,23,p,q
20210702_1430,kbtjqe2e,12,6,q,q
20210702_1430,gq9fzq9w,12,21,q,q
20210702_1430,ot30actm,12,22,q,q
20210702_1430,6kwe5o6c,12,19,q,p
20210702_1430,atma1qcx,12,5,p,q
20210702_1430,w884g810,13,14,p,q
20210702_1430,zmaoyq1i,13,16,q,q
20210702_1430,8t5zwjgh,13,23,p,p
20210702_1430,ocezwog3,13,17,p,p
20210702_1430,gad5ovep,13,2,p,q
20210702_1430,kbtjqe2e,13,3,p,q
20210702_1430,gq9fzq9w,13,12,q,p
20210702_1430,ot30actm,13,15,p,q
20210702_1430,6kwe5o6c,13,2,p,q
20210702_1430,atma1qcx,13,13,p,q
20210702_1430,w884g810,14,5,p,q
20210702_1430,zmaoyq1i,14,21,q,q
20210702_1430,8t5zwjgh,14,25,p,p
20210702_1430,ocezwog3,14,7,q,p
20210702_1430,gad5ovep,14,24,q,p
20210702_1430,kbtjqe2e,14,21,q,q
20210702_1430,gq9fzq9w,14,18,q,p
20210702_1430,ot30actm,14,19,p,p
20210702_1430,6kwe5o6c,14,11,q,q
20210702_1430,atma1qcx,14,7,p,q
20210702_1430,w884g810,15,16,p,q
20210702_1430,zmaoyq1i,15,5,p,q
20210702_1430,8t5zwjgh,15,16,q,q
20210702_1430,ocezwog3,15,22,q,q
20210702_1430,gad5ovep,15,3,p,q
20210702_1430,kbtjqe2e,15,5,p,p
20210702_1430,gq9fzq9w,15,2,q,q
20210702_1430,ot30actm,15,10,q,q
20210702_1430,6kwe5o6c,15,18,p,q
20210702_1430,atma1qcx,15,22,p,q
20210702_1430,w884g810,16,23,q,p
20210702_1430,zmaoyq1i,16,3,p,q
20210702_1430,8t5zwjgh,16,17,p,p
20210702_1430,ocezwog3,16,21,q,q
20210702_1430,gad5ovep,16,19,p,p
20210702_1430,kbtjqe2e,16,23,p,q
20210702_1430,gq9fzq9w,16,24,p,p
20210702_1430,ot30actm,16,11,p,q
20210702_1430,6kwe5o6c,16,17,q,q
20210702_1430,atma1qcx,16,2,q,q
20210702_1430,w884g810,17,24,p,q
20210702_1430,zmaoyq1i,17,7,q,p
20210702_1430,8t5zwjgh,17,15,p,p
20210702_1430,ocezwog3,17,2,q,p
20210702_1430,gad5ovep,17,14,q,q
20210702_1430,kbtjqe2e,17,10,p,q
20210702_1430,gq9fzq9w,17,20,p,p
20210702_1430,ot30actm,17,5,p,q
20210702_1430,6kwe5o6c,17,4,p,q
20210702_1430,atma1qcx,17,16,q,p
20210702_1430,w884g810,18,8,q,q
20210702_1430,zmaoyq1i,18,1,p,q
20210702_1430,8t5zwjgh,18,6,p,p
20210702_1430,ocezwog3,18,19,p,p
20210702_1430,gad5ovep,18,10,q,q
20210702_1430,kbtjqe2e,18,14,p,p
20210702_1430,gq9fzq9w,18,6,p,q
20210702_1430,ot30actm,18,6,p,q
20210702_1430,6kwe5o6c,18,10,p,q
20210702_1430,atma1qcx,18,11,p,q
20210702_1430,w884g810,19,2,q,q
20210702_1430,zmaoyq1i,19,10,q,q
20210702_1430,8t5zwjgh,19,24,q,p
20210702_1430,ocezwog3,19,4,q,p
20210702_1430,gad5ovep,19,9,p,q
20210702_1430,kbtjqe2e,19,17,p,p
20210702_1430,gq9fzq9w,19,3,q,q
20210702_1430,ot30actm,19,20,p,p
20210702_1430,6kwe5o6c,19,14,q,p
20210702_1430,atma1qcx,19,3,p,q
20210702_1430,w884g810,20,22,p,q
20210702_1430,zmaoyq1i,20,15,p,p
20210702_1430,8t5zwjgh,20,2,p,p
20210702_1430,ocezwog3,20,18,q,p
20210702_1430,gad5ovep,20,20,p,p
20210702_1430,kbtjqe2e,20,19,q,p
20210702_1430,gq9fzq9w,20,5,p,p
20210702_1430,ot30actm,20,23,p,q
20210702_1430,6kwe5o6c,20,6,p,q
20210702_1430,atma1qcx,20,4,q,p
20210702_1430,w884g810,21,11,p,q
20210702_1430,zmaoyq1i,21,12,q,q
20210702_1430,8t5zwjgh,21,4,q,q
20210702_1430,ocezwog3,21,8,p,p
20210702_1430,gad5ovep,21,6,q,q
20210702_1430,kbtjqe2e,21,9,q,q
20210702_1430,gq9fzq9w,21,10,q,q
20210702_1430,ot30actm,21,24,p,q
20210702_1430,6kwe5o6c,21,16,p,q
20210702_1430,atma1qcx,21,9,q,q
20210702_1430,w884g810,22,25,q,p
20210702_1430,zmaoyq1i,22,13,p,q
20210702_1430,8t5zwjgh,22,10,q,q
20210702_1430,ocezwog3,22,9,p,p
20210702_1430,gad5ovep,22,5,q,q
20210702_1430,kbtjqe2e,22,18,q,p
20210702_1430,gq9fzq9w,22,7,q,q
20210702_1430,ot30actm,22,12,q,q
20210702_1430,6kwe5o6c,22,3,p,q
20210702_1430,atma1qcx,22,8,p,p
20210702_1430,w884g810,23,18,q,p
20210702_1430,zmaoyq1i,23,20,p,p
20210702_1430,8t5zwjgh,23,9,p,q
20210702_1430,ocezwog3,23,24,q,p
20210702_1430,gad5ovep,23,22,q,q
20210702_1430,kbtjqe2e,23,4,q,q
20210702_1430,gq9fzq9w,23,4,q,p
20210702_1430,ot30actm,23,21,q,q
20210702_1430,6kwe5o6c,23,5,p,q
20210702_1430,atma1qcx,23,24,p,q
20210702_1430,w884g810,24,21,q,q
20210702_1430,zmaoyq1i,24,4,p,p
20210702_1430,8t5zwjgh,24,19,p,p
20210702_1430,ocezwog3,24,3,q,p
20210702_1430,gad5ovep,24,8,q,q
20210702_1430,kbtjqe2e,24,1,q,q
20210702_1430,gq9fzq9w,24,17,q,p
20210702_1430,ot30actm,24,13,p,q
20210702_1430,6kwe5o6c,24,22,p,q
20210702_1430,atma1qcx,24,12,q,q
20210702_1430,w884g810,25,3,p,q
20210702_1430,zmaoyq1i,25,11,p,q
20210702_1430,8t5zwjgh,25,11,p,p
20210702_1430,ocezwog3,25,11,q,p
20210702_1430,gad5ovep,25,25,p,q
20210702_1430,kbtjqe2e,25,22,q,q
20210702_1430,gq9fzq9w,25,25,p,p
20210702_1430,ot30actm,25,7,q,q
20210702_1430,6kwe5o6c,25,8,p,p
20210702_1430,atma1qcx,25,1,p,q
20210713_1300,9bcof7wo,1,13,p,p
20210713_1300,o11c7at5,1,2,p,q
20210713_1300,ckkobwom,1,4,p,p
20210713_1300,mbc73hwl,1,17,q,p
20210713_1300,9bcof7wo,2,21,p,q
20210713_1300,o11c7at5,2,11,p,p
20210713_1300,ckkobwom,2,1,q,p
20210713_1300,mbc73hwl,2,25,p,p
20210713_1300,9bcof7wo,3,25,q,p
20210713_1300,o11c7at5,3,7,q,q
20210713_1300,ckkobwom,3,15,p,p
20210713_1300,mbc73hwl,3,6,q,q
20210713_1300,9bcof7wo,4,4,q,q
20210713_1300,o11c7at5,4,4,q,q
20210713_1300,ckkobwom,4,13,p,p
20210713_1300,mbc73hwl,4,19,q,p
20210713_1300,9bcof7wo,5,8,p,p
20210713_1300,o11c7at5,5,8,q,p
20210713_1300,ckkobwom,5,19,q,p
20210713_1300,mbc73hwl,5,8,q,p
20210713_1300,9bcof7wo,6,19,p,q
20210713_1300,o11c7at5,6,15,p,q
20210713_1300,ckkobwom,6,6,p,p
20210713_1300,mbc73hwl,6,9,p,p
20210713_1300,9bcof7wo,7,11,q,p
20210713_1300,o11c7at5,7,18,p,q
20210713_1300,ckkobwom,7,10,p,p
20210713_1300,mbc73hwl,7,18,q,p
20210713_1300,9bcof7wo,8,24,p,q
20210713_1300,o11c7at5,8,21,q,q
20210713_1300,ckkobwom,8,20,p,p
20210713_1300,mbc73hwl,8,14,p,p
20210713_1300,9bcof7wo,9,6,q,p
20210713_1300,o11c7at5,9,10,q,q
20210713_1300,ckkobwom,9,9,p,p
20210713_1300,mbc73hwl,9,22,q,q
20210713_1300,9bcof7wo,10,14,p,p
20210713_1300,o11c7at5,10,13,q,q
20210713_1300,ckkobwom,10,12,q,p
20210713_1300,mbc73hwl,10,24,p,p
20210713_1300,9bcof7wo,11,22,p,q
20210713_1300,o11c7at5,11,23,q,q
20210713_1300,ckkobwom,11,7,q,p
20210713_1300,mbc73hwl,11,23,q,q
20210713_1300,9bcof7wo,12,23,q,q
20210713_1300,o11c7at5,12,5,p,q
20210713_1300,ckkobwom,12,17,p,p
20210713_1300,mbc73hwl,12,2,p,q
20210713_1300,9bcof7wo,13,16,p,q
20210713_1300,o11c7at5,13,14,p,q
20210713_1300,ckkobwom,13,14,p,p
20210713_1300,mbc73hwl,13,16,q,q
20210713_1300,9bcof7wo,14,2,q,p
20210713_1300,o11c7at5,14,22,p,q
20210713_1300,ckkobwom,14,5,p,p
20210713_1300,mbc73hwl,14,21,q,q
20210713_1300,9bcof7wo,15,7,p,p
20210713_1300,o11c7at5,15,16,q,q
20210713_1300,ckkobwom,15,16,p,p
20210713_1300,mbc73hwl,15,5,p,q
20210713_1300,9bcof7wo,16,9,p,q
20210713_1300,o11c7at5,16,25,p,q
20210713_1300,ckkobwom,16,23,q,p
20210713_1300,mbc73hwl,16,3,p,q
20210713_1300,9bcof7wo,17,3,p,q
20210713_1300,o11c7at5,17,6,q,q
20210713_1300,ckkobwom,17,24,p,p
20210713_1300,mbc73hwl,17,7,q,q
20210713_1300,9bcof7wo,18,10,q,q
20210713_1300,o11c7at5,18,20,p,p
20210713_1300,ckkobwom,18,8,q,p
20210713_1300,mbc73hwl,18,1,p,q
20210713_1300,9bcof7wo,19,5,p,p
20210713_1300,o11c7at5,19,1,p,q
20210713_1300,ckkobwom,19,2,q,p
20210713_1300,mbc73hwl,19,10,q,q
20210713_1300,9bcof7wo,20,15,q,p
20210713_1300,o11c7at5,20,17,q,q
20210713_1300,ckkobwom,20,22,p,q
20210713_1300,mbc73hwl,20,15,p,p
20210713_1300,9bcof7wo,21,1,p,q
20210713_1300,o11c7at5,21,12,q,q
20210713_1300,ckkobwom,21,11,p,p
20210713_1300,mbc73hwl,21,12,q,q
20210713_1300,9bcof7wo,22,17,p,p
20210713_1300,o11c7at5,22,3,q,q
20210713_1300,ckkobwom,22,25,q,p
20210713_1300,mbc73hwl,22,13,p,p
20210713_1300,9bcof7wo,23,20,q,p
20210713_1300,o11c7at5,23,9,p,q
20210713_1300,ckkobwom,23,18,q,p
20210713_1300,mbc73hwl,23,20,p,p
20210713_1300,9bcof7wo,24,12,q,p
20210713_1300,o11c7at5,24,24,p,q
20210713_1300,ckkobwom,24,21,q,q
20210713_1300,mbc73hwl,24,4,p,p
20210713_1300,9bcof7wo,25,18,p,p
20210713_1300,o11c7at5,25,19,q,p
20210713_1300,ckkobwom,25,3,p,p
20210713_1300,mbc73hwl,25,11,p,q
20210713_1430,p6guj6oc,1,5,p,q
20210713_1430,c463oa0l,1,16,q,p
20210713_1430,yvv61syj,1,1,p,p
20210713_1430,xjl7tb8y,1,7,p,q
20210713_1430,rzx15z0z,1,1,p,q
20210713_1430,p6guj6oc,2,14,q,q
20210713_1430,c463oa0l,2,23,q,q
20210713_1430,yvv61syj,2,16,p,q
20210713_1430,xjl7tb8y,2,2,p,q
20210713_1430,rzx15z0z,2,16,q,q
20210713_1430,p6guj6oc,3,20,q,p
20210713_1430,c463oa0l,3,15,q,p
20210713_1430,yvv61syj,3,13,q,p
20210713_1430,xjl7tb8y,3,24,q,p
20210713_1430,rzx15z0z,3,9,q,p
20210713_1430,p6guj6oc,4,12,q,q
20210713_1430,c463oa0l,4,25,q,p
20210713_1430,yvv61syj,4,11,p,q
20210713_1430,xjl7tb8y,4,25,q,q
20210713_1430,rzx15z0z,4,13,p,q
20210713_1430,p6guj6oc,5,3,q,q
20210713_1430,c463oa0l,5,5,q,q
20210713_1430,yvv61syj,5,17,q,p
20210713_1430,xjl7tb8y,5,12,q,q
20210713_1430,rzx15z0z,5,23,q,q
20210713_1430,p6guj6oc,6,13,p,q
20210713_1430,c463oa0l,6,14,q,p
20210713_1430,yvv61syj,6,4,p,q
20210713_1430,xjl7tb8y,6,8,q,q
20210713_1430,rzx15z0z,6,8,p,q
20210713_1430,p6guj6oc,7,18,p,q
20210713_1430,c463oa0l,7,10,q,q
20210713_1430,yvv61syj,7,15,q,p
20210713_1430,xjl7tb8y,7,20,p,p
20210713_1430,rzx15z0z,7,19,q,p
20210713_1430,p6guj6oc,8,21,p,q
20210713_1430,c463oa0l,8,1,q,q
20210713_1430,yvv61syj,8,21,p,p
20210713_1430,xjl7tb8y,8,13,p,q
20210713_1430,rzx15z0z,8,14,q,q
20210713_1430,p6guj6oc,9,22,p,q
20210713_1430,c463oa0l,9,20,p,p
20210713_1430,yvv61syj,9,12,p,p
20210713_1430,xjl7tb8y,9,11,q,q
20210713_1430,rzx15z0z,9,15,p,q
20210713_1430,p6guj6oc,10,8,q,q
20210713_1430,c463oa0l,10,12,p,q
20210713_1430,yvv61syj,10,18,q,p
20210713_1430,xjl7tb8y,10,16,p,q
20210713_1430,rzx15z0z,10,11,p,q
20210713_1430,p6guj6oc,11,7,q,q
20210713_1430,c463oa0l,11,13,p,p
20210713_1430,yvv61syj,11,7,q,p
20210713_1430,xjl7tb8y,11,15,q,q
20210713_1430,rzx15z0z,11,22,p,q
20210713_1430,p6guj6oc,12,1,q,q
20210713_1430,c463oa0l,12,6,q,q
20210713_1430,yvv61syj,12,23,p,p
20210713_1430,xjl7tb8y,12,6,q,q
20210713_1430,rzx15z0z,12,21,q,q
20210713_1430,p6guj6oc,13,23,p,q
20210713_1430,c463oa0l,13,17,p,q
20210713_1430,yvv61syj,13,2,p,p
20210713_1430,xjl7tb8y,13,3,p,q
20210713_1430,rzx15z0z,13,12,q,p
20210713_1430,p6guj6oc,14,25,p,q
20210713_1430,c463oa0l,14,7,q,q
20210713_1430,yvv61syj,14,24,q,p
20210713_1430,xjl7tb8y,14,21,q,q
20210713_1430,rzx15z0z,14,18,q,q
20210713_1430,p6guj6oc,15,16,q,q
20210713_1430,c463oa0l,15,22,q,q
20210713_1430,yvv61syj,15,3,p,q
20210713_1430,xjl7tb8y,15,5,p,q
20210713_1430,rzx15z0z,15,2,q,q
20210713_1430,p6guj6oc,16,17,p,q
20210713_1430,c463oa0l,16,21,q,q
20210713_1430,yvv61syj,16,19,p,p
20210713_1430,xjl7tb8y,16,23,p,p
20210713_1430,rzx15z0z,16,24,p,q
20210713_1430,p6guj6oc,17,15,p,q
20210713_1430,c463oa0l,17,2,q,q
20210713_1430,yvv61syj,17,14,q,p
20210713_1430,xjl7tb8y,17,10,p,q
20210713_1430,rzx15z0z,17,20,p,p
20210713_1430,p6guj6oc,18,6,p,q
20210713_1430,c463oa0l,18,19,p,p
20210713_1430,yvv61syj,18,10,q,q
20210713_1430,xjl7tb8y,18,14,p,q
20210713_1430,rzx15z0z,18,6,p,q
20210713_1430,p6guj6oc,19,24,q,q
20210713_1430,c463oa0l,19,4,q,q
20210713_1430,yvv61syj,19,9,p,p
20210713_1430,xjl7tb8y,19,17,p,p
20210713_1430,rzx15z0z,19,3,q,q
20210713_1430,p6guj6oc,20,2,p,q
20210713_1430,c463oa0l,20,18,q,p
20210713_1430,yvv61syj,20,20,p,p
20210713_1430,xjl7tb8y,20,19,q,p
20210713_1430,rzx15z0z,20,5,p,q
20210713_1430,p6guj6oc,21,4,q,p
20210713_1430,c463oa0l,21,8,p,p
20210713_1430,yvv61syj,21,6,q,q
20210713_1430,xjl7tb8y,21,9,q,q
20210713_1430,rzx15z0z,21,10,q,q
20210713_1430,p6guj6oc,22,10,q,q
20210713_1430,c463oa0l,22,9,p,q
20210713_1430,yvv61syj,22,5,q,p
20210713_1430,xjl7tb8y,22,18,q,p
20210713_1430,rzx15z0z,22,7,q,q
20210713_1430,p6guj6oc,23,9,p,q
20210713_1430,c463oa0l,23,24,q,p
20210713_1430,yvv61syj,23,22,q,q
20210713_1430,xjl7tb8y,23,4,q,p
20210713_1430,rzx15z0z,23,4,q,p
20210713_1430,p6guj6oc,24,19,p,p
20210713_1430,c463oa0l,24,3,q,q
20210713_1430,yvv61syj,24,8,q,p
20210713_1430,xjl7tb8y,24,1,q,q
20210713_1430,rzx15z0z,24,17,q,q
20210713_1430,p6guj6oc,25,11,p,q
20210713_1430,c463oa0l,25,11,q,q
20210713_1430,yvv61syj,25,25,p,p
20210713_1430,xjl7tb8y,25,22,q,q
20210713_1430,rzx15z0z,25,25,p,q
20210714_1000,xnn4ylqp,1,1,p,q
20210714_1000,thvb1r44,1,15,q,q
20210714_1000,lwxingsi,1,20,q,p
20210714_1000,xnn4ylqp,2,4,q,p
20210714_1000,thvb1r44,2,20,p,p
20210714_1000,lwxingsi,2,10,p,q
20210714_1000,xnn4ylqp,3,3,q,p
20210714_1000,thvb1r44,3,13,p,q
20210714_1000,lwxingsi,3,23,p,p
20210714_1000,xnn4ylqp,4,18,q,p
20210714_1000,thvb1r44,4,21,q,q
20210714_1000,lwxingsi,4,25,q,p
20210714_1000,xnn4ylqp,5,16,p,q
20210714_1000,thvb1r44,5,9,p,q
20210714_1000,lwxingsi,5,17,p,p
20210714_1000,xnn4ylqp,6,8,q,p
20210714_1000,thvb1r44,6,7,p,p
20210714_1000,lwxingsi,6,6,q,p
20210714_1000,xnn4ylqp,7,25,p,p
20210714_1000,thvb1r44,7,25,p,p
20210714_1000,lwxingsi,7,18,p,p
20210714_1000,xnn4ylqp,8,14,p,p
20210714_1000,thvb1r44,8,12,p,q
20210714_1000,lwxingsi,8,19,p,p
20210714_1000,xnn4ylqp,9,17,q,q
20210714_1000,thvb1r44,9,23,p,p
20210714_1000,lwxingsi,9,21,p,p
20210714_1000,xnn4ylqp,10,2,p,q
20210714_1000,thvb1r44,10,24,p,p
20210714_1000,lwxingsi,10,14,q,q
20210714_1000,xnn4ylqp,11,9,q,q
20210714_1000,thvb1r44,11,1,q,q
20210714_1000,lwxingsi,11,15,p,q
20210714_1000,xnn4ylqp,12,22,q,q
20210714_1000,thvb1r44,12,19,q,p
20210714_1000,lwxingsi,12,5,p,q
20210714_1000,xnn4ylqp,13,15,p,p
20210714_1000,thvb1r44,13,2,p,q
20210714_1000,lwxingsi,13,13,p,q
20210714_1000,xnn4ylqp,14,19,p,p
20210714_1000,thvb1r44,14,11,q,q
20210714_1000,lwxingsi,14,7,p,p
20210714_1000,xnn4ylqp,15,10,q,q
20210714_1000,thvb1r44,15,18,p,p
20210714_1000,lwxingsi,15,22,p,q
20210714_1000,xnn4ylqp,16,11,p,q
20210714_1000,thvb1r44,16,17,q,p
20210714_1000,lwxingsi,16,2,q,q
20210714_1000,xnn4ylqp,17,5,p,q
20210714_1000,thvb1r44,17,4,p,q
20210714_1000,lwxingsi,17,16,q,p
20210714_1000,xnn4ylqp,18,6,p,q
20210714_1000,thvb1r44,18,10,p,q
20210714_1000,lwxingsi,18,11,p,q
20210714_1000,xnn4ylqp,19,20,p,p
20210714_1000,thvb1r44,19,14,q,p
20210714_1000,lwxingsi,19,3,p,q
20210714_1000,xnn4ylqp,20,23,p,p
20210714_1000,thvb1r44,20,6,p,q
20210714_1000,lwxingsi,20,4,q,p
20210714_1000,xnn4ylqp,21,24,p,p
20210714_1000,thvb1r44,21,16,p,q
20210714_1000,lwxingsi,21,9,q,q
20210714_1000,xnn4ylqp,22,12,q,q
20210714_1000,thvb1r44,22,3,p,q
20210714_1000,lwxingsi,22,8,p,q
20210714_1000,xnn4ylqp,23,21,q,q
20210714_1000,thvb1r44,23,5,p,q
20210714_1000,lwxingsi,23,24,p,p
20210714_1000,xnn4ylqp,24,13,p,p
20210714_1000,thvb1r44,24,22,p,q
20210714_1000,lwxingsi,24,12,q,q
20210714_1000,xnn4ylqp,25,7,q,q
20210714_1000,thvb1r44,25,8,p,p
20210714_1000,lwxingsi,25,1,p,q
20210714_1130,fbkvcwj3,1,5,p,p
20210714_1130,0ozxf8xh,1,16,q,p
20210714_1130,fbkvcwj3,2,14,q,q
20210714_1130,0ozxf8xh,2,23,q,p
20210714_1130,fbkvcwj3,3,20,q,p
20210714_1130,0ozxf8xh,3,15,q,q
20210714_1130,fbkvcwj3,4,12,q,p
20210714_1130,0ozxf8xh,4,25,q,p
20210714_1130,fbkvcwj3,5,3,q,p
20210714_1130,0ozxf8xh,5,5,q,q
20210714_1130,fbkvcwj3,6,13,p,p
20210714_1130,0ozxf8xh,6,14,q,p
20210714_1130,fbkvcwj3,7,18,p,q
20210714_1130,0ozxf8xh,7,10,q,p
20210714_1130,fbkvcwj3,8,21,p,q
20210714_1130,0ozxf8xh,8,1,q,q
20210714_1130,fbkvcwj3,9,22,p,q
20210714_1130,0ozxf8xh,9,20,p,p
20210714_1130,fbkvcwj3,10,8,q,p
20210714_1130,0ozxf8xh,10,12,p,q
20210714_1130,fbkvcwj3,11,7,q,q
20210714_1130,0ozxf8xh,11,13,p,q
20210714_1130,fbkvcwj3,12,1,q,p
20210714_1130,0ozxf8xh,12,6,q,q
20210714_1130,fbkvcwj3,13,23,p,p
20210714_1130,0ozxf8xh,13,17,p,q
20210714_1130,fbkvcwj3,14,25,p,p
20210714_1130,0ozxf8xh,14,7,q,q
20210714_1130,fbkvcwj3,15,16,q,p
20210714_1130,0ozxf8xh,15,22,q,q
20210714_1130,fbkvcwj3,16,17,p,p
20210714_1130,0ozxf8xh,16,21,q,q
20210714_1130,fbkvcwj3,17,15,p,p
20210714_1130,0ozxf8xh,17,2,q,q
20210714_1130,fbkvcwj3,18,6,p,q
20210714_1130,0ozxf8xh,18,19,p,p
20210714_1130,fbkvcwj3,19,24,q,p
20210714_1130,0ozxf8xh,19,4,q,q
20210714_1130,fbkvcwj3,20,2,p,q
20210714_1130,0ozxf8xh,20,18,q,p
20210714_1130,fbkvcwj3,21,4,q,q
20210714_1130,0ozxf8xh,21,8,p,q
20210714_1130,fbkvcwj3,22,10,q,p
20210714_1130,0ozxf8xh,22,9,p,q
20210714_1130,fbkvcwj3,23,9,p,q
20210714_1130,0ozxf8xh,23,24,q,q
20210714_1130,fbkvcwj3,24,19,p,p
20210714_1130,0ozxf8xh,24,3,q,q
20210714_1130,fbkvcwj3,25,11,p,p
20210714_1130,0ozxf8xh,25,11,q,p
20211006_1000,djg59bu2,1,1,p,q
20211006_1000,d84vlama,1,7,p,p
20211006_1000,70uhesln,1,1,p,q
20211006_1000,34gfep4y,1,1,p,p
20211006_1000,ir9i1zyd,1,15,q,q
20211006_1000,nq3h20qw,1,20,q,p
20211006_1000,bxvbfy2c,1,2,p,q
20211006_1000,cw8zvr2h,1,23,q,p
20211006_1000,9xmkmjqn,1,13,q,q
20211006_1000,lw7kgktf,1,2,p,q
20211006_1000,djg59bu2,2,16,p,p
20211006_1000,d84vlama,2,2,p,p
20211006_1000,70uhesln,2,16,q,p
20211006_1000,34gfep4y,2,4,q,q
20211006_1000,ir9i1zyd,2,20,p,p
20211006_1000,nq3h20qw,2,10,p,q
20211006_1000,bxvbfy2c,2,14,q,q
20211006_1000,cw8zvr2h,2,19,q,p
20211006_1000,9xmkmjqn,2,21,p,q
20211006_1000,lw7kgktf,2,21,q,q
20211006_1000,djg59bu2,3,13,q,q
20211006_1000,d84vlama,3,24,q,p
20211006_1000,70uhesln,3,9,q,q
20211006_1000,34gfep4y,3,3,q,q
20211006_1000,ir9i1zyd,3,13,p,q
20211006_1000,nq3h20qw,3,23,p,q
20211006_1000,bxvbfy2c,3,20,p,p
20211006_1000,cw8zvr2h,3,18,p,p
20211006_1000,9xmkmjqn,3,18,p,q
20211006_1000,lw7kgktf,3,3,q,q
20211006_1000,djg59bu2,4,11,p,q
20211006_1000,d84vlama,4,25,q,p
20211006_1000,70uhesln,4,13,p,q
20211006_1000,34gfep4y,4,18,q,q
20211006_1000,ir9i1zyd,4,21,q,q
20211006_1000,nq3h20qw,4,25,q,p
20211006_1000,bxvbfy2c,4,6,p,q
20211006_1000,cw8zvr2h,4,2,q,q
20211006_1000,9xmkmjqn,4,14,p,p
20211006_1000,lw7kgktf,4,23,p,p
20211006_1000,djg59bu2,5,17,q,q
20211006_1000,d84vlama,5,12,q,p
20211006_1000,70uhesln,5,23,q,p
20211006_1000,34gfep4y,5,16,p,p
20211006_1000,ir9i1zyd,5,9,p,q
20211006_1000,nq3h20qw,5,17,p,q
20211006_1000,bxvbfy2c,5,21,q,q
20211006_1000,cw8zvr2h,5,22,q,q
20211006_1000,9xmkmjqn,5,6,q,q
20211006_1000,lw7kgktf,5,4,p,p
20211006_1000,djg59bu2,6,4,p,p
20211006_1000,d84vlama,6,8,q,p
20211006_1000,70uhesln,6,8,p,p
20211006_1000,34gfep4y,6,8,q,p
20211006_1000,ir9i1zyd,6,7,p,p
20211006_1000,nq3h20qw,6,6,q,q
20211006_1000,bxvbfy2c,6,7,q,q
20211006_1000,cw8zvr2h,6,11,p,q
20211006_1000,9xmkmjqn,6,11,p,q
20211006_1000,lw7kgktf,6,13,p,q
20211006_1000,djg59bu2,7,15,q,q
20211006_1000,d84vlama,7,20,p,p
20211006_1000,70uhesln,7,19,q,p
20211006_1000,34gfep4y,7,25,p,p
20211006_1000,ir9i1zyd,7,25,p,p
20211006_1000,nq3h20qw,7,18,p,p
20211006_1000,bxvbfy2c,7,15,q,q
20211006_1000,cw8zvr2h,7,20,q,p
20211006_1000,9xmkmjqn,7,7,q,q
20211006_1000,lw7kgktf,7,22,p,q
20211006_1000,djg59bu2,8,21,p,q
20211006_1000,d84vlama,8,13,p,p
20211006_1000,70uhesln,8,14,q,p
20211006_1000,34gfep4y,8,14,p,q
20211006_1000,ir9i1zyd,8,12,p,q
20211006_1000,nq3h20qw,8,19,p,p
20211006_1000,bxvbfy2c,8,17,p,q
20211006_1000,cw8zvr2h,8,21,p,q
20211006_1000,9xmkmjqn,8,15,q,q
20211006_1000,lw7kgktf,8,8,p,p
20211006_1000,djg59bu2,9,12,p,q
20211006_1000,d84vlama,9,11,q,p
20211006_1000,70uhesln,9,15,p,q
20211006_1000,34gfep4y,9,17,q,q
20211006_1000,ir9i1zyd,9,23,p,q
20211006_1000,nq3h20qw,9,21,p,q
20211006_1000,bxvbfy2c,9,13,q,q
20211006_1000,cw8zvr2h,9,12,p,q
20211006_1000,9xmkmjqn,9,10,q,q
20211006_1000,lw7kgktf,9,20,q,p
20211006_1000,djg59bu2,10,18,q,q
20211006_1000,d84vlama,10,16,p,p
20211006_1000,70uhesln,10,11,p,q
20211006_1000,34gfep4y,10,2,p,q
20211006_1000,ir9i1zyd,10,24,p,p
20211006_1000,nq3h20qw,10,14,q,q
20211006_1000,bxvbfy2c,10,3,q,q
20211006_1000,cw8zvr2h,10,9,q,q
20211006_1000,9xmkmjqn,10,19,p,p
20211006_1000,lw7kgktf,10,18,q,p
20211006_1000,djg59bu2,11,7,q,p
20211006_1000,d84vlama,11,15,q,p
20211006_1000,70uhesln,11,22,p,q
20211006_1000,34gfep4y,11,9,q,q
20211006_1000,ir9i1zyd,11,1,q,q
20211006_1000,nq3h20qw,11,15,p,q
20211006_1000,bxvbfy2c,11,8,q,q
20211006_1000,cw8zvr2h,11,8,q,p
20211006_1000,9xmkmjqn,11,1,p,p
20211006_1000,lw7kgktf,11,19,q,p
20211006_1000,djg59bu2,12,23,p,p
20211006_1000,d84vlama,12,6,q,p
20211006_1000,70uhesln,12,21,q,q
20211006_1000,34gfep4y,12,22,q,q
20211006_1000,ir9i1zyd,12,19,q,p
20211006_1000,nq3h20qw,12,5,p,q
20211006_1000,bxvbfy2c,12,11,p,q
20211006_1000,cw8zvr2h,12,13,q,q
20211006_1000,9xmkmjqn,12,24,q,q
20211006_1000,lw7kgktf,12,6,p,q
20211006_1000,djg59bu2,13,2,p,q
20211006_1000,d84vlama,13,3,p,p
20211006_1000,70uhesln,13,12,q,q
20211006_1000,34gfep4y,13,15,p,p
20211006_1000,ir9i1zyd,13,2,p,q
20211006_1000,nq3h20qw,13,13,p,q
20211006_1000,bxvbfy2c,13,16,p,p
20211006_1000,cw8zvr2h,13,7,p,p
20211006_1000,9xmkmjqn,13,23,q,q
20211006_1000,lw7kgktf,13,14,p,q
20211006_1000,djg59bu2,14,24,q,q
20211006_1000,d84vlama,14,21,q,p
20211006_1000,70uhesln,14,18,q,p
20211006_1000,34gfep4y,14,19,p,p
20211006_1000,ir9i1zyd,14,11,q,q
20211006_1000,nq3h20qw,14,7,p,q
20211006_1000,bxvbfy2c,14,4,q,q
20211006_1000,cw8zvr2h,14,15,p,p
20211006_1000,9xmkmjqn,14,4,p,q
20211006_1000,lw7kgktf,14,1,p,q
20211006_1000,djg59bu2,15,3,p,q
20211006_1000,d84vlama,15,5,p,p
20211006_1000,70uhesln,15,2,q,q
20211006_1000,34gfep4y,15,10,q,q
20211006_1000,ir9i1zyd,15,18,p,q
20211006_1000,nq3h20qw,15,22,p,q
20211006_1000,bxvbfy2c,15,1,q,p
20211006_1000,cw8zvr2h,15,6,q,q
20211006_1000,9xmkmjqn,15,5,p,q
20211006_1000,lw7kgktf,15,15,p,p
20211006_1000,djg59bu2,16,19,p,p
20211006_1000,d84vlama,16,23,p,p
20211006_1000,70uhesln,16,24,p,p
20211006_1000,34gfep4y,16,11,p,q
20211006_1000,ir9i1zyd,16,17,q,p
20211006_1000,nq3h20qw,16,2,q,q
20211006_1000,bxvbfy2c,16,10,q,q
20211006_1000,cw8zvr2h,16,1,q,q
20211006_1000,9xmkmjqn,16,16,q,p
20211006_1000,lw7kgktf,16,12,p,p
20211006_1000,djg59bu2,17,14,q,p
20211006_1000,d84vlama,17,10,p,p
20211006_1000,70uhesln,17,20,p,p
20211006_1000,34gfep4y,17,5,p,q
20211006_1000,ir9i1zyd,17,4,p,q
20211006_1000,nq3h20qw,17,16,q,q
20211006_1000,bxvbfy2c,17,18,q,q
20211006_1000,cw8zvr2h,17,17,p,p
20211006_1000,9xmkmjqn,17,17,p,q
20211006_1000,lw7kgktf,17,5,p,q
20211006_1000,djg59bu2,18,10,q,p
20211006_1000,d84vlama,18,14,p,p
20211006_1000,70uhesln,18,6,p,q
20211006_1000,34gfep4y,18,6,p,q
20211006_1000,ir9i1zyd,18,10,p,q
20211006_1000,nq3h20qw,18,11,p,q
20211006_1000,bxvbfy2c,18,9,q,q
20211006_1000,cw8zvr2h,18,3,p,q
20211006_1000,9xmkmjqn,18,3,p,q
20211006_1000,lw7kgktf,18,16,q,q
20211006_1000,djg59bu2,19,9,p,p
20211006_1000,d84vlama,19,17,p,p
20211006_1000,70uhesln,19,3,q,q
20211006_1000,34gfep4y,19,20,p,p
20211006_1000,ir9i1zyd,19,14,q,p
20211006_1000,nq3h20qw,19,3,p,q
20211006_1000,bxvbfy2c,19,24,p,q
20211006_1000,cw8zvr2h,19,10,q,q
20211006_1000,9xmkmjqn,19,20,p,p
20211006_1000,lw7kgktf,19,17,p,p
20211006_1000,djg59bu2,20,20,p,p
20211006_1000,d84vlama,20,19,q,p
20211006_1000,70uhesln,20,5,p,q
20211006_1000,34gfep4y,20,23,p,q
20211006_1000,ir9i1zyd,20,6,p,q
20211006_1000,nq3h20qw,20,4,q,q
20211006_1000,bxvbfy2c,20,19,q,p
20211006_1000,cw8zvr2h,20,25,q,q
20211006_1000,9xmkmjqn,20,8,q,q
20211006_1000,lw7kgktf,20,25,p,q
20211006_1000,djg59bu2,21,6,q,p
20211006_1000,d84vlama,21,9,q,p
20211006_1000,70uhesln,21,10,q,q
20211006_1000,34gfep4y,21,24,p,q
20211006_1000,ir9i1zyd,21,16,p,p
20211006_1000,nq3h20qw,21,9,q,q
20211006_1000,bxvbfy2c,21,22,q,q
20211006_1000,cw8zvr2h,21,24,q,p
20211006_1000,9xmkmjqn,21,22,q,q
20211006_1000,lw7kgktf,21,24,p,p
20211006_1000,djg59bu2,22,5,q,q
20211006_1000,d84vlama,22,18,q,p
20211006_1000,70uhesln,22,7,q,q
20211006_1000,34gfep4y,22,12,q,q
20211006_1000,ir9i1zyd,22,3,p,q
20211006_1000,nq3h20qw,22,8,p,q
20211006_1000,bxvbfy2c,22,12,q,q
20211006_1000,cw8zvr2h,22,14,p,p
20211006_1000,9xmkmjqn,22,25,q,p
20211006_1000,lw7kgktf,22,9,p,q
20211006_1000,djg59bu2,23,22,q,q
